stimuli,star,CorrectAns,trials_3.thisRepN,trials_3.thisTrialN,trials_3.thisN,trials_3.thisIndex,trials.thisRepN,trials.thisTrialN,trials.thisN,trials.thisIndex,trials_4.thisRepN,trials_4.thisTrialN,trials_4.thisN,trials_4.thisIndex,trials_2.thisRepN,trials_2.thisTrialN,trials_2.thisN,trials_2.thisIndex,thisRow.t,notes,routine_21.started,text_9.started,key_resp_8.started,routine_21.stopped,key_resp_8.keys,key_resp_8.rt,key_resp_8.duration,introduction.started,text_6.started,key_resp_5.started,introduction.stopped,key_resp_5.keys,key_resp_5.rt,key_resp_5.duration,routine_14.started,image_6.started,routine_14.stopped,routine_16.started,text_4.started,text_4.stopped,routine_16.stopped,routine_17.started,image_7.started,key_resp_3.started,routine_17.stopped,key_resp_3.keys,key_resp_3.rt,key_resp_3.duration,image_7.stopped,routine_20.started,text_8.started,key_resp_7.started,routine_20.stopped,key_resp_7.keys,key_resp_7.rt,key_resp_7.duration,routine_18.started,text_5.started,key_resp_4.started,routine_18.stopped,key_resp_4.keys,key_resp_4.rt,key_resp_4.duration,trial.started,image_3.started,trial.stopped,routine.started,text_3.started,text_3.stopped,routine.stopped,routine_1.started,image_2.started,key_resp.started,image_2.stopped,routine_1.stopped,key_resp.keys,key_resp.corr,key_resp.rt,key_resp.duration,routine_22.started,text_10.started,key_resp_9.started,routine_22.stopped,key_resp_9.keys,key_resp_9.rt,key_resp_9.duration,routine_19.started,text_7.started,key_resp_6.started,routine_19.stopped,key_resp_6.keys,key_resp_6.rt,key_resp_6.duration,routine_23.started,image_8.started,routine_23.stopped,routine_24.started,text_11.started,text_11.stopped,routine_24.stopped,routine_25.started,image_9.started,key_resp_10.started,routine_25.stopped,key_resp_10.keys,key_resp_10.rt,key_resp_10.duration,image_9.stopped,routine_26.started,text_12.started,key_resp_11.started,routine_26.stopped,key_resp_11.keys,key_resp_11.rt,key_resp_11.duration,routine_27.started,text_13.started,key_resp_12.started,routine_27.stopped,key_resp_12.keys,key_resp_12.rt,key_resp_12.duration,routine_10.started,image_4.started,routine_10.stopped,routine_11.started,text.started,text.stopped,routine_11.stopped,routine_12.started,image_5.started,key_resp_2.started,image_5.stopped,routine_12.stopped,key_resp_2.keys,key_resp_2.corr,key_resp_2.rt,key_resp_2.duration,participant,session,date,expName,psychopyVersion,frameRate,expStart,
,,,,,,,,,,,,,,,,,,,,,0.00298079999993206,0.006873899999959576,0.006873899999959576,2.555316599999969,space,2.531889799999931,None,,,,,,,,,,,,,,,,,,,,,,,,,,,,,,,,,,,,,,,,,,,,,,,,,,,,,,,,,,,,,,,,,,,,,,,,,,,,,,,,,,,,,,,,,,,,,,,,,,,,,,,,,,,,,,,,001,001,2023-11-11_13h18.58.683,untitled,2023.2.2,59.93234836516178,2023-11-11 13h19.07.357391 +0800,
,,,,,,,,,,,,,,,,,,,,,,,,,,,,2.5553703999999016,2.569805699999961,2.569805699999961,3.5712724999999637,space,0.9870241999999507,None,,,,,,,,,,,,,,,,,,,,,,,,,,,,,,,,,,,,,,,,,,,,,,,,,,,,,,,,,,,,,,,,,,,,,,,,,,,,,,,,,,,,,,,,,,,,,,,,,,,,,,,,,001,001,2023-11-11_13h18.58.683,untitled,2023.2.2,59.93234836516178,2023-11-11 13h19.07.357391 +0800,
9,test/rightstar.PNG,space,0,0,0,3,,,,,,,,,,,,,3.7094366000000036,,,,,,,,,,,,,,,,3.5814591999999266,3.7094366000000036,4.087381499999992,4.0874063999999635,4.586436800000001,5.14148519999992,4.87131439999996,4.871342899999945,6.205040399999916,6.205040399999916,6.922018699999967,right,0.7022373000000925,None,,,,,,,,,,,,,,,,,,,,,,,,,,,,,,,,,,,,,,,,,,,,,,,,,,,,,,,,,,,,,,,,,,,,,,,,,,,,,,,,,,,,,,,,,,,001,001,2023-11-11_13h18.58.683,untitled,2023.2.2,59.93234836516178,2023-11-11 13h19.07.357391 +0800,
8,test/rightstar.PNG,space,0,1,1,1,,,,,,,,,,,,,6.976816999999983,,,,,,,,,,,,,,,,6.923190499999919,6.976816999999983,7.437263400000006,7.4373019999999315,7.936388399999942,8.343423400000006,8.220558499999925,8.22058340000001,9.538577400000008,9.538577400000008,18.188643899999988,space,8.634714400000007,None,10.353022399999986,,,,,,,,,,,,,,,,,,,,,,,,,,,,,,,,,,,,,,,,,,,,,,,,,,,,,,,,,,,,,,,,,,,,,,,,,,,,,,,,,,,,,,,,,,001,001,2023-11-11_13h18.58.683,untitled,2023.2.2,59.93234836516178,2023-11-11 13h19.07.357391 +0800,
1,test/leftstar.PNG,left,0,2,2,0,,,,,,,,,,,,,18.261305799999946,,,,,,,,,,,,,,,,18.1896749,18.261305799999946,18.70385979999992,18.70388109999999,19.202919099999917,19.735255099999904,19.48749979999991,19.48752229999991,20.80508779999991,20.80508779999991,21.222452599999997,left,0.4141570000000456,None,,,,,,,,,,,,,,,,,,,,,,,,,,,,,,,,,,,,,,,,,,,,,,,,,,,,,,,,,,,,,,,,,,,,,,,,,,,,,,,,,,,,,,,,,,,001,001,2023-11-11_13h18.58.683,untitled,2023.2.2,59.93234836516178,2023-11-11 13h19.07.357391 +0800,
8,test/rightstar.PNG,space,0,3,3,5,,,,,,,,,,,,,21.284873800000014,,,,,,,,,,,,,,,,21.223362299999962,21.284873800000014,21.737196799999992,21.737217999999984,22.23639700000001,22.669890599999917,22.521386699999994,22.521412899999973,23.838507399999912,23.838507399999912,27.78795279999997,space,3.9346932999999353,None,24.65307919999998,,,,,,,,,,,,,,,,,,,,,,,,,,,,,,,,,,,,,,,,,,,,,,,,,,,,,,,,,,,,,,,,,,,,,,,,,,,,,,,,,,,,,,,,,,001,001,2023-11-11_13h18.58.683,untitled,2023.2.2,59.93234836516178,2023-11-11 13h19.07.357391 +0800,
1,test/blank.PNG,space,0,4,4,2,,,,,,,,,,,,,27.843233399999917,,,,,,,,,,,,,,,,27.788838599999963,27.843233399999917,28.30411229999993,28.304135499999916,28.80325229999994,29.194439699999975,29.087553099999923,29.087577099999976,30.404362499999934,30.404362499999934,31.204712099999938,space,0.7974324000000479,None,31.20313329999999,,,,,,,,,,,,,,,,,,,,,,,,,,,,,,,,,,,,,,,,,,,,,,,,,,,,,,,,,,,,,,,,,,,,,,,,,,,,,,,,,,,,,,,,,,001,001,2023-11-11_13h18.58.683,untitled,2023.2.2,59.93234836516178,2023-11-11 13h19.07.357391 +0800,
2,test/leftstar.PNG,left,0,5,5,4,,,,,,,,,,,,,31.262672099999918,,,,,,,,,,,,,,,,31.205525299999977,31.262672099999918,31.72080799999992,31.72084559999996,32.21999139999991,32.79358119999995,32.50447550000001,32.50450639999997,33.82171389999996,33.82171389999996,34.438950699999964,left,0.6131410999998934,None,,,,,,,,,,,,,,,,,,,,,,,,,,,,,,,,,,,,,,,,,,,,,,,,,,,,,,,,,,,,,,,,,,,,,,,,,,,,,,,,,,,,,,,,,,,001,001,2023-11-11_13h18.58.683,untitled,2023.2.2,59.93234836516178,2023-11-11 13h19.07.357391 +0800,
,,,,,,,,,,,,,,,,,,,,,,,,,,,,,,,,,,,,,,,,,,,,,,,,,,34.43964369999992,34.45319489999997,34.45319489999997,35.770264699999984,space,1.3032643000000235,None,,,,,,,,,,,,,,,,,,,,,,,,,,,,,,,,,,,,,,,,,,,,,,,,,,,,,,,,,,,,,,,,,,,,,,,,,,,,,,,,,,,001,001,2023-11-11_13h18.58.683,untitled,2023.2.2,59.93234836516178,2023-11-11 13h19.07.357391 +0800,
,,,,,,,,,,,,,,,,,,,,,,,,,,,,,,,,,,,,,,,,,,,,,,,,,,,,,,,,,35.770291399999905,35.78637619999995,35.78637619999995,36.90506299999993,space,1.105421299999989,None,,,,,,,,,,,,,,,,,,,,,,,,,,,,,,,,,,,,,,,,,,,,,,,,,,,,,,,,,,,,,,,,,,,,,,,,,,,,001,001,2023-11-11_13h18.58.683,untitled,2023.2.2,59.93234836516178,2023-11-11 13h19.07.357391 +0800,
9,condition_1/leftstar.PNG,space,,,,,0,0,0,19,,,,,,,,,37.07711969999991,,,,,,,,,,,,,,,,,,,,,,,,,,,,,,,,,,,,,,,,,,,,,36.92117409999992,37.07711969999991,37.42072469999994,37.42075019999993,37.920094500000005,38.50035249999996,38.20430759999999,38.20433479999997,39.53563759999997,39.53563759999997,40.336634199999935,41.78753059999997,space,1,2.241809699999976,None,,,,,,,,,,,,,,,,,,,,,,,,,,,,,,,,,,,,,,,,,,,,,,,,,,,,,,,,,,,,001,001,2023-11-11_13h18.58.683,untitled,2023.2.2,59.93234836516178,2023-11-11 13h19.07.357391 +0800,
2,condition_1/leftstar.PNG,left,,,,,0,1,1,17,,,,,,,,,41.871607100000006,,,,,,,,,,,,,,,,,,,,,,,,,,,,,,,,,,,,,,,,,,,,,41.78860959999997,41.871607100000006,42.303839100000005,42.30386249999992,42.80315350000001,43.24838949999992,43.08759999999995,43.08762639999998,44.40570099999991,44.40570099999991,,45.00525970000001,left,1,0.5898133999999118,None,,,,,,,,,,,,,,,,,,,,,,,,,,,,,,,,,,,,,,,,,,,,,,,,,,,,,,,,,,,,001,001,2023-11-11_13h18.58.683,untitled,2023.2.2,59.93234836516178,2023-11-11 13h19.07.357391 +0800,
2,condition_1/blank.PNG,space,,,,,0,2,2,20,,,,,,,,,45.09920299999999,,,,,,,,,,,,,,,,,,,,,,,,,,,,,,,,,,,,,,,,,,,,,45.00632759999996,45.09920299999999,45.52050079999992,45.520524199999954,46.01986749999992,46.46268359999999,46.304170099999965,46.30421369999999,47.62095360000001,47.62095360000001,48.41989579999995,51.02105969999991,space,1,3.3962578999999096,None,,,,,,,,,,,,,,,,,,,,,,,,,,,,,,,,,,,,,,,,,,,,,,,,,,,,,,,,,,,,001,001,2023-11-11_13h18.58.683,untitled,2023.2.2,59.93234836516178,2023-11-11 13h19.07.357391 +0800,
1,condition_1/rightstar.PNG,right,,,,,0,3,3,12,,,,,,,,,51.15071539999997,,,,,,,,,,,,,,,,,,,,,,,,,,,,,,,,,,,,,,,,,,,,,51.02215000000001,51.15071539999997,51.537153099999955,51.53717659999995,52.03672599999993,52.523948599999926,52.32096249999995,52.32098939999992,53.638676799999985,53.638676799999985,54.45321489999992,54.52158279999992,right,1,0.8730821000000333,None,,,,,,,,,,,,,,,,,,,,,,,,,,,,,,,,,,,,,,,,,,,,,,,,,,,,,,,,,,,,001,001,2023-11-11_13h18.58.683,untitled,2023.2.2,59.93234836516178,2023-11-11 13h19.07.357391 +0800,
1,condition_1/rightstar.PNG,right,,,,,0,4,4,4,,,,,,,,,54.579130299999974,,,,,,,,,,,,,,,,,,,,,,,,,,,,,,,,,,,,,,,,,,,,,54.522615299999984,54.579130299999974,55.03748239999993,55.037506599999915,55.536652199999935,56.00042719999999,55.8209096999999,55.82093629999997,57.138503499999956,57.138503499999956,,57.7386113,right,1,0.5831764999999223,None,,,,,,,,,,,,,,,,,,,,,,,,,,,,,,,,,,,,,,,,,,,,,,,,,,,,,,,,,,,,001,001,2023-11-11_13h18.58.683,untitled,2023.2.2,59.93234836516178,2023-11-11 13h19.07.357391 +0800,
1,condition_1/blank.PNG,space,,,,,0,5,5,8,,,,,,,,,57.80814620000001,,,,,,,,,,,,,,,,,,,,,,,,,,,,,,,,,,,,,,,,,,,,,57.73972119999996,57.80814620000001,58.25407199999995,58.25409509999997,58.75307669999995,59.13799599999993,59.03777739999998,59.03780999999992,60.354769799999985,60.354769799999985,61.16987949999998,61.50482679999993,space,1,1.1391587000000527,None,,,,,,,,,,,,,,,,,,,,,,,,,,,,,,,,,,,,,,,,,,,,,,,,,,,,,,,,,,,,001,001,2023-11-11_13h18.58.683,untitled,2023.2.2,59.93234836516178,2023-11-11 13h19.07.357391 +0800,
2,condition_1/leftstar.PNG,left,,,,,0,6,6,22,,,,,,,,,61.56526569999994,,,,,,,,,,,,,,,,,,,,,,,,,,,,,,,,,,,,,,,,,,,,,61.50586909999993,61.56526569999994,62.02072820000001,62.02076009999996,62.52012659999991,63.05027759999996,62.80394419999993,62.80397110000001,64.1223999,64.1223999,,64.75557909999998,left,1,0.6299569000000247,None,,,,,,,,,,,,,,,,,,,,,,,,,,,,,,,,,,,,,,,,,,,,,,,,,,,,,,,,,,,,001,001,2023-11-11_13h18.58.683,untitled,2023.2.2,59.93234836516178,2023-11-11 13h19.07.357391 +0800,
8,condition_1/leftstar.PNG,space,,,,,0,7,7,2,,,,,,,,,64.82231359999992,,,,,,,,,,,,,,,,,,,,,,,,,,,,,,,,,,,,,,,,,,,,,64.75669069999992,64.82231359999992,65.27158039999995,65.27160889999993,65.76950469999997,66.2006533,66.05443449999996,66.05445999999995,67.37196529999994,67.37196529999994,68.18631529999993,69.98767999999995,space,1,2.598625699999957,None,,,,,,,,,,,,,,,,,,,,,,,,,,,,,,,,,,,,,,,,,,,,,,,,,,,,,,,,,,,,001,001,2023-11-11_13h18.58.683,untitled,2023.2.2,59.93234836516178,2023-11-11 13h19.07.357391 +0800,
2,condition_1/blank.PNG,space,,,,,0,8,8,9,,,,,,,,,70.04465619999996,,,,,,,,,,,,,,,,,,,,,,,,,,,,,,,,,,,,,,,,,,,,,69.98884029999999,70.04465619999996,70.5037807,70.5038070999999,71.00328219999994,71.39349149999998,71.28823309999996,71.28829129999997,72.60436879999997,72.60436879999997,73.4029286,73.62346319999995,space,1,1.0091456000000107,None,,,,,,,,,,,,,,,,,,,,,,,,,,,,,,,,,,,,,,,,,,,,,,,,,,,,,,,,,,,,001,001,2023-11-11_13h18.58.683,untitled,2023.2.2,59.93234836516178,2023-11-11 13h19.07.357391 +0800,
1,condition_1/leftstar.PNG,left,,,,,0,9,9,16,,,,,,,,,73.71528449999994,,,,,,,,,,,,,,,,,,,,,,,,,,,,,,,,,,,,,,,,,,,,,73.62437460000001,73.71528449999994,74.13664729999994,74.13666119999993,74.63635599999998,75.19576949999998,74.92087249999997,74.9208994999999,76.23905849999994,76.23905849999994,,76.85658969999997,left,1,0.6059007000000065,None,,,,,,,,,,,,,,,,,,,,,,,,,,,,,,,,,,,,,,,,,,,,,,,,,,,,,,,,,,,,001,001,2023-11-11_13h18.58.683,untitled,2023.2.2,59.93234836516178,2023-11-11 13h19.07.357391 +0800,
8,condition_1/rightstar.PNG,space,,,,,0,10,10,14,,,,,,,,,76.9378418,,,,,,,,,,,,,,,,,,,,,,,,,,,,,,,,,,,,,,,,,,,,,76.85768459999997,76.9378418,77.37043869999991,77.37045149999994,77.8699408,78.30827019999992,78.15458860000001,78.15461749999997,79.47213999999997,79.47213999999997,80.28630349999992,80.2878796,space,1,0.8076141999999891,None,,,,,,,,,,,,,,,,,,,,,,,,,,,,,,,,,,,,,,,,,,,,,,,,,,,,,,,,,,,,001,001,2023-11-11_13h18.58.683,untitled,2023.2.2,59.93234836516178,2023-11-11 13h19.07.357391 +0800,
1,condition_1/leftstar.PNG,left,,,,,0,11,11,0,,,,,,,,,80.35020009999994,,,,,,,,,,,,,,,,,,,,,,,,,,,,,,,,,,,,,,,,,,,,,80.28887759999998,80.35020009999994,80.80325699999992,80.80326789999992,81.30318269999998,81.74632589999999,81.5874301,81.5874546,82.90567849999991,82.90567849999991,,83.65744069999994,left,1,0.7471506000000545,None,,,,,,,,,,,,,,,,,,,,,,,,,,,,,,,,,,,,,,,,,,,,,,,,,,,,,,,,,,,,001,001,2023-11-11_13h18.58.683,untitled,2023.2.2,59.93234836516178,2023-11-11 13h19.07.357391 +0800,
9,condition_1/rightstar.PNG,space,,,,,0,12,12,7,,,,,,,,,83.72122909999996,,,,,,,,,,,,,,,,,,,,,,,,,,,,,,,,,,,,,,,,,,,,,83.65846069999998,83.72122909999996,84.17041129999996,84.17043259999991,84.6698007,85.09896949999995,84.9540197,84.9540452,86.27154949999999,86.27154949999999,,86.87162059999991,space,1,0.5963743999999451,None,,,,,,,,,,,,,,,,,,,,,,,,,,,,,,,,,,,,,,,,,,,,,,,,,,,,,,,,,,,,001,001,2023-11-11_13h18.58.683,untitled,2023.2.2,59.93234836516178,2023-11-11 13h19.07.357391 +0800,
2,condition_1/leftstar.PNG,left,,,,,0,13,13,1,,,,,,,,,86.92605589999994,,,,,,,,,,,,,,,,,,,,,,,,,,,,,,,,,,,,,,,,,,,,,86.87218009999992,86.92605589999994,87.38675269999999,87.38676899999996,87.88638619999995,88.31386999999995,88.17022149999991,88.17023359999996,89.48870749999992,89.48870749999992,,90.20550509999998,left,1,0.7021952000000056,None,,,,,,,,,,,,,,,,,,,,,,,,,,,,,,,,,,,,,,,,,,,,,,,,,,,,,,,,,,,,001,001,2023-11-11_13h18.58.683,untitled,2023.2.2,59.93234836516178,2023-11-11 13h19.07.357391 +0800,
1,condition_1/rightstar.PNG,right,,,,,0,14,14,21,,,,,,,,,90.26285969999992,,,,,,,,,,,,,,,,,,,,,,,,,,,,,,,,,,,,,,,,,,,,,90.2064742,90.26285969999992,90.72046499999999,90.72048869999992,91.2194657,91.63156619999995,91.5042062,91.50422979999996,92.8225347,92.8225347,,93.4726263,right,1,0.6349013999999897,None,,,,,,,,,,,,,,,,,,,,,,,,,,,,,,,,,,,,,,,,,,,,,,,,,,,,,,,,,,,,001,001,2023-11-11_13h18.58.683,untitled,2023.2.2,59.93234836516178,2023-11-11 13h19.07.357391 +0800,
9,condition_1/leftstar.PNG,space,,,,,0,15,15,3,,,,,,,,,93.5389161999999,,,,,,,,,,,,,,,,,,,,,,,,,,,,,,,,,,,,,,,,,,,,,93.4737907,93.5389161999999,93.98733559999994,93.98737080000001,94.48632869999994,94.90035379999995,94.77046139999993,94.7704862999999,96.0885702999999,96.0885702999999,,96.8387616,space,1,0.7366445999999769,None,,,,,,,,,,,,,,,,,,,,,,,,,,,,,,,,,,,,,,,,,,,,,,,,,,,,,,,,,,,,001,001,2023-11-11_13h18.58.683,untitled,2023.2.2,59.93234836516178,2023-11-11 13h19.07.357391 +0800,
2,condition_1/rightstar.PNG,right,,,,,0,16,16,13,,,,,,,,,96.89889269999992,,,,,,,,,,,,,,,,,,,,,,,,,,,,,,,,,,,,,,,,,,,,,96.8398032,96.89889269999992,97.3540749,97.35412769999994,97.85304029999998,98.26692029999992,98.1377263999999,98.13775620000001,99.45519139999999,99.45519139999999,,100.18979359999992,right,1,0.7311525000000074,None,,,,,,,,,,,,,,,,,,,,,,,,,,,,,,,,,,,,,,,,,,,,,,,,,,,,,,,,,,,,001,001,2023-11-11_13h18.58.683,untitled,2023.2.2,59.93234836516178,2023-11-11 13h19.07.357391 +0800,
2,condition_1/rightstar.PNG,left,,,,,0,17,17,5,,,,,,,,,100.24536819999992,,,,,,,,,,,,,,,,,,,,,,,,,,,,,,,,,,,,,,,,,,,,,100.19080359999998,100.24536819999992,100.70376439999995,100.70380899999998,101.2029407,101.61699979999992,101.48773080000001,101.48775769999997,102.8053486,102.8053486,,103.32185489999995,right,0,0.510531599999922,None,,,,,,,,,,,,,,,,,,,,,,,,,,,,,,,,,,,,,,,,,,,,,,,,,,,,,,,,,,,,001,001,2023-11-11_13h18.58.683,untitled,2023.2.2,59.93234836516178,2023-11-11 13h19.07.357391 +0800,
8,condition_1/rightstar.PNG,space,,,,,0,18,18,23,,,,,,,,,103.37953479999999,,,,,,,,,,,,,,,,,,,,,,,,,,,,,,,,,,,,,,,,,,,,,103.32283659999996,103.37953479999999,103.83750999999995,103.83753539999998,104.33644059999995,104.75441449999994,104.62087969999993,104.62090839999996,105.93838589999996,105.93838589999996,,106.33890409999992,space,1,0.3968542999999727,None,,,,,,,,,,,,,,,,,,,,,,,,,,,,,,,,,,,,,,,,,,,,,,,,,,,,,,,,,,,,001,001,2023-11-11_13h18.58.683,untitled,2023.2.2,59.93234836516178,2023-11-11 13h19.07.357391 +0800,
8,condition_1/rightstar.PNG,space,,,,,0,19,19,6,,,,,,,,,106.39654580000001,,,,,,,,,,,,,,,,,,,,,,,,,,,,,,,,,,,,,,,,,,,,,106.33994899999993,106.39654580000001,106.85374969999998,106.8537728,107.35313009999993,107.78273549999994,107.63785999999993,107.63791089999995,108.95507629999997,108.95507629999997,,109.60506190000001,space,1,0.6464886999999635,None,,,,,,,,,,,,,,,,,,,,,,,,,,,,,,,,,,,,,,,,,,,,,,,,,,,,,,,,,,,,001,001,2023-11-11_13h18.58.683,untitled,2023.2.2,59.93234836516178,2023-11-11 13h19.07.357391 +0800,
9,condition_1/leftstar.PNG,space,,,,,0,20,20,24,,,,,,,,,109.66432349999991,,,,,,,,,,,,,,,,,,,,,,,,,,,,,,,,,,,,,,,,,,,,,109.60604939999996,109.66432349999991,110.12045969999997,110.12051389999999,110.61961939999992,111.0436795999999,110.90404879999994,110.90408009999999,112.22174889999997,112.22174889999997,,112.83865949999995,space,1,0.610099400000081,None,,,,,,,,,,,,,,,,,,,,,,,,,,,,,,,,,,,,,,,,,,,,,,,,,,,,,,,,,,,,001,001,2023-11-11_13h18.58.683,untitled,2023.2.2,59.93234836516178,2023-11-11 13h19.07.357391 +0800,
9,condition_1/blank.PNG,space,,,,,0,21,21,11,,,,,,,,,112.89997589999996,,,,,,,,,,,,,,,,,,,,,,,,,,,,,,,,,,,,,,,,,,,,,112.83977329999993,112.89997589999996,113.35364959999993,113.35367339999993,113.85312179999994,114.2817268,114.13808319999998,114.13811959999998,115.45445649999999,115.45445649999999,116.25310609999997,117.40463179999995,space,1,1.9438641999998936,None,,,,,,,,,,,,,,,,,,,,,,,,,,,,,,,,,,,,,,,,,,,,,,,,,,,,,,,,,,,,001,001,2023-11-11_13h18.58.683,untitled,2023.2.2,59.93234836516178,2023-11-11 13h19.07.357391 +0800,
8,condition_1/leftstar.PNG,space,,,,,0,22,22,18,,,,,,,,,117.46375519999992,,,,,,,,,,,,,,,,,,,,,,,,,,,,,,,,,,,,,,,,,,,,,117.405755,117.46375519999992,117.92030879999993,117.92033059999994,118.42005239999992,118.96610399999997,118.70437689999994,118.70440809999991,120.02193809999994,120.02193809999994,,120.50524969999992,space,1,0.47457040000006145,None,,,,,,,,,,,,,,,,,,,,,,,,,,,,,,,,,,,,,,,,,,,,,,,,,,,,,,,,,,,,001,001,2023-11-11_13h18.58.683,untitled,2023.2.2,59.93234836516178,2023-11-11 13h19.07.357391 +0800,
8,condition_1/blank.PNG,space,,,,,0,23,23,10,,,,,,,,,120.57513029999996,,,,,,,,,,,,,,,,,,,,,,,,,,,,,,,,,,,,,,,,,,,,,120.50625930000001,120.57513029999996,121.02039830000001,121.02042510000001,121.51997799999992,121.90097700000001,121.80457949999993,121.80460310000001,123.12076219999994,123.12076219999994,,123.68885589999991,space,1,0.5586909999999534,None,,,,,,,,,,,,,,,,,,,,,,,,,,,,,,,,,,,,,,,,,,,,,,,,,,,,,,,,,,,,001,001,2023-11-11_13h18.58.683,untitled,2023.2.2,59.93234836516178,2023-11-11 13h19.07.357391 +0800,
9,condition_1/rightstar.PNG,space,,,,,0,24,24,15,,,,,,,,,123.7462812,,,,,,,,,,,,,,,,,,,,,,,,,,,,,,,,,,,,,,,,,,,,,123.69000289999997,123.7462812,124.20373199999995,124.20375339999998,124.70334689999993,125.23499429999993,124.98787959999993,124.9879067999999,126.30515879999996,126.30515879999996,,126.92180769999993,space,1,0.6142853999999716,None,,,,,,,,,,,,,,,,,,,,,,,,,,,,,,,,,,,,,,,,,,,,,,,,,,,,,,,,,,,,001,001,2023-11-11_13h18.58.683,untitled,2023.2.2,59.93234836516178,2023-11-11 13h19.07.357391 +0800,
1,condition_1/leftstar.PNG,left,,,,,1,0,25,0,,,,,,,,,126.99131869999997,,,,,,,,,,,,,,,,,,,,,,,,,,,,,,,,,,,,,,,,,,,,,126.92277619999993,126.99131869999997,127.43702429999996,127.4370748,127.93638049999993,128.37797769999997,128.2213438,128.2213967,129.53832009999996,129.53832009999996,,129.97195579999993,left,1,0.4222050999999283,None,,,,,,,,,,,,,,,,,,,,,,,,,,,,,,,,,,,,,,,,,,,,,,,,,,,,,,,,,,,,001,001,2023-11-11_13h18.58.683,untitled,2023.2.2,59.93234836516178,2023-11-11 13h19.07.357391 +0800,
9,condition_1/blank.PNG,space,,,,,1,1,26,11,,,,,,,,,130.03651939999997,,,,,,,,,,,,,,,,,,,,,,,,,,,,,,,,,,,,,,,,,,,,,129.9729784,130.03651939999997,130.4873007,130.48733649999997,130.98670099999993,131.36178789999997,131.2714423,131.27146829999992,132.58783119999998,132.58783119999998,133.40314409999996,133.65799319999996,space,1,1.067811900000038,None,,,,,,,,,,,,,,,,,,,,,,,,,,,,,,,,,,,,,,,,,,,,,,,,,,,,,,,,,,,,001,001,2023-11-11_13h18.58.683,untitled,2023.2.2,59.93234836516178,2023-11-11 13h19.07.357391 +0800,
9,condition_1/leftstar.PNG,space,,,,,1,2,27,24,,,,,,,,,133.73771309999995,,,,,,,,,,,,,,,,,,,,,,,,,,,,,,,,,,,,,,,,,,,,,133.65899579999996,133.73771309999995,134.17090099999996,134.17092259999993,134.67006909999998,135.2341705,134.9544851999999,134.95452379999995,136.27162929999997,136.27162929999997,137.08661559999996,137.12209109999992,space,1,0.8425144000000273,None,,,,,,,,,,,,,,,,,,,,,,,,,,,,,,,,,,,,,,,,,,,,,,,,,,,,,,,,,,,,001,001,2023-11-11_13h18.58.683,untitled,2023.2.2,59.93234836516178,2023-11-11 13h19.07.357391 +0800,
2,condition_1/rightstar.PNG,right,,,,,1,3,28,13,,,,,,,,,137.2082282,,,,,,,,,,,,,,,,,,,,,,,,,,,,,,,,,,,,,,,,,,,,,137.12347339999997,137.2082282,137.6372619,137.6372955999999,138.13641289999998,138.58673569999996,138.42097409999997,138.4210015,139.7389791999999,139.7389791999999,,140.13893789999997,right,1,0.38456250000001546,None,,,,,,,,,,,,,,,,,,,,,,,,,,,,,,,,,,,,,,,,,,,,,,,,,,,,,,,,,,,,001,001,2023-11-11_13h18.58.683,untitled,2023.2.2,59.93234836516178,2023-11-11 13h19.07.357391 +0800,
8,condition_1/leftstar.PNG,space,,,,,1,4,29,2,,,,,,,,,140.19710209999994,,,,,,,,,,,,,,,,,,,,,,,,,,,,,,,,,,,,,,,,,,,,,140.1400079,140.19710209999994,140.65397389999998,140.65401829999996,141.15304189999995,141.62160069999993,141.43723749999992,141.4372515,142.7555084999999,142.7555084999999,,143.1552757999999,space,1,0.3826123999999709,None,,,,,,,,,,,,,,,,,,,,,,,,,,,,,,,,,,,,,,,,,,,,,,,,,,,,,,,,,,,,001,001,2023-11-11_13h18.58.683,untitled,2023.2.2,59.93234836516178,2023-11-11 13h19.07.357391 +0800,
8,condition_1/leftstar.PNG,space,,,,,1,5,30,18,,,,,,,,,143.21343419999994,,,,,,,,,,,,,,,,,,,,,,,,,,,,,,,,,,,,,,,,,,,,,143.1563511999999,143.21343419999994,143.67062899999996,143.67065259999993,144.16990799999996,144.60886919999996,144.45383529999992,144.45385579999993,145.7720895,145.7720895,,146.50516259999995,space,1,0.7246698999999808,None,,,,,,,,,,,,,,,,,,,,,,,,,,,,,,,,,,,,,,,,,,,,,,,,,,,,,,,,,,,,001,001,2023-11-11_13h18.58.683,untitled,2023.2.2,59.93234836516178,2023-11-11 13h19.07.357391 +0800,
1,condition_1/rightstar.PNG,right,,,,,1,6,31,21,,,,,,,,,146.56845699999997,,,,,,,,,,,,,,,,,,,,,,,,,,,,,,,,,,,,,,,,,,,,,146.50624679999999,146.56845699999997,147.02081499999997,147.02084109999998,147.51977739999995,147.93040399999995,147.80403679999995,147.8040625,149.12191659999996,149.12191659999996,,149.555427,right,1,0.43113340000002154,None,,,,,,,,,,,,,,,,,,,,,,,,,,,,,,,,,,,,,,,,,,,,,,,,,,,,,,,,,,,,001,001,2023-11-11_13h18.58.683,untitled,2023.2.2,59.93234836516178,2023-11-11 13h19.07.357391 +0800,
2,condition_1/leftstar.PNG,left,,,,,1,7,32,17,,,,,,,,,149.61307419999991,,,,,,,,,,,,,,,,,,,,,,,,,,,,,,,,,,,,,,,,,,,,,149.55650939999998,149.61307419999991,150.07072469999991,150.0707501999999,150.56979619999993,150.98676439999997,150.85429469999997,150.85432089999995,152.17184729999997,152.17184729999997,,152.67242569999996,left,1,0.4949397999999974,None,,,,,,,,,,,,,,,,,,,,,,,,,,,,,,,,,,,,,,,,,,,,,,,,,,,,,,,,,,,,001,001,2023-11-11_13h18.58.683,untitled,2023.2.2,59.93234836516178,2023-11-11 13h19.07.357391 +0800,
8,condition_1/rightstar.PNG,space,,,,,1,8,33,23,,,,,,,,,152.72981649999997,,,,,,,,,,,,,,,,,,,,,,,,,,,,,,,,,,,,,,,,,,,,,152.67353749999995,152.72981649999997,153.18734129999996,153.18736449999994,153.68643129999998,154.09862569999996,153.9710455999999,153.97107199999994,155.2884674999999,155.2884674999999,,155.8217856,space,1,0.5242782999999918,None,,,,,,,,,,,,,,,,,,,,,,,,,,,,,,,,,,,,,,,,,,,,,,,,,,,,,,,,,,,,001,001,2023-11-11_13h18.58.683,untitled,2023.2.2,59.93234836516178,2023-11-11 13h19.07.357391 +0800,
2,condition_1/leftstar.PNG,left,,,,,1,9,34,22,,,,,,,,,155.8822986,,,,,,,,,,,,,,,,,,,,,,,,,,,,,,,,,,,,,,,,,,,,,155.82281839999996,155.8822986,156.3370746999999,156.3370982,156.8363144,157.25613079999994,157.1208722,157.12096929999996,158.4386531,158.4386531,,158.80561369999998,left,1,0.3583303000000342,None,,,,,,,,,,,,,,,,,,,,,,,,,,,,,,,,,,,,,,,,,,,,,,,,,,,,,,,,,,,,001,001,2023-11-11_13h18.58.683,untitled,2023.2.2,59.93234836516178,2023-11-11 13h19.07.357391 +0800,
8,condition_1/rightstar.PNG,space,,,,,1,10,35,6,,,,,,,,,158.8650614999999,,,,,,,,,,,,,,,,,,,,,,,,,,,,,,,,,,,,,,,,,,,,,158.80688409999993,158.8650614999999,159.32048179999992,159.32050519999996,159.81987349999997,160.23036589999992,160.10393499999998,160.1039619999999,161.4221086,161.4221086,,161.95532509999998,space,1,0.5276986999999735,None,,,,,,,,,,,,,,,,,,,,,,,,,,,,,,,,,,,,,,,,,,,,,,,,,,,,,,,,,,,,001,001,2023-11-11_13h18.58.683,untitled,2023.2.2,59.93234836516178,2023-11-11 13h19.07.357391 +0800,
1,condition_1/leftstar.PNG,left,,,,,1,11,36,16,,,,,,,,,162.01377889999992,,,,,,,,,,,,,,,,,,,,,,,,,,,,,,,,,,,,,,,,,,,,,161.95633899999996,162.01377889999992,162.47073319999993,162.47075619999998,162.96999329999994,163.38385019999998,163.25402309999993,163.25405649999993,164.5727945,164.5727945,,164.97305929999993,left,1,0.3946157000000312,None,,,,,,,,,,,,,,,,,,,,,,,,,,,,,,,,,,,,,,,,,,,,,,,,,,,,,,,,,,,,001,001,2023-11-11_13h18.58.683,untitled,2023.2.2,59.93234836516178,2023-11-11 13h19.07.357391 +0800,
2,condition_1/rightstar.PNG,left,,,,,1,12,37,5,,,,,,,,,165.03718429999992,,,,,,,,,,,,,,,,,,,,,,,,,,,,,,,,,,,,,,,,,,,,,164.97415869999998,165.03718429999992,165.4874496,165.48747129999992,165.98625449999997,166.39953879999996,166.27083329999994,166.27086279999992,167.58845789999998,167.58845789999998,,167.9558773,right,0,0.35195950000002085,None,,,,,,,,,,,,,,,,,,,,,,,,,,,,,,,,,,,,,,,,,,,,,,,,,,,,,,,,,,,,001,001,2023-11-11_13h18.58.683,untitled,2023.2.2,59.93234836516178,2023-11-11 13h19.07.357391 +0800,
1,condition_1/rightstar.PNG,right,,,,,1,13,38,12,,,,,,,,,168.01896879999993,,,,,,,,,,,,,,,,,,,,,,,,,,,,,,,,,,,,,,,,,,,,,167.95684999999992,168.01896879999993,168.47050449999995,168.47052639999993,168.97019709999995,169.3759374,169.25402969999993,169.25405919999992,170.57205939999994,170.57205939999994,,171.00582499999996,right,1,0.42851840000002994,None,,,,,,,,,,,,,,,,,,,,,,,,,,,,,,,,,,,,,,,,,,,,,,,,,,,,,,,,,,,,001,001,2023-11-11_13h18.58.683,untitled,2023.2.2,59.93234836516178,2023-11-11 13h19.07.357391 +0800,
9,condition_1/leftstar.PNG,space,,,,,1,14,39,3,,,,,,,,,171.0661788,,,,,,,,,,,,,,,,,,,,,,,,,,,,,,,,,,,,,,,,,,,,,171.00688919999993,171.0661788,171.52059329999997,171.52061619999995,172.01995499999998,172.42752009999992,172.30433099999993,172.3043581999999,173.62213569999994,173.62213569999994,,174.0054189,space,1,0.38030160000005253,None,,,,,,,,,,,,,,,,,,,,,,,,,,,,,,,,,,,,,,,,,,,,,,,,,,,,,,,,,,,,001,001,2023-11-11_13h18.58.683,untitled,2023.2.2,59.93234836516178,2023-11-11 13h19.07.357391 +0800,
9,condition_1/rightstar.PNG,space,,,,,1,15,40,15,,,,,,,,,174.06714929999998,,,,,,,,,,,,,,,,,,,,,,,,,,,,,,,,,,,,,,,,,,,,,174.00659259999998,174.06714929999998,174.520581,174.5206053999999,175.0197462,175.43912269999998,175.30405469999994,175.30408009999996,176.6220058,176.6220058,,177.0403642,space,1,0.41416289999995115,None,,,,,,,,,,,,,,,,,,,,,,,,,,,,,,,,,,,,,,,,,,,,,,,,,,,,,,,,,,,,001,001,2023-11-11_13h18.58.683,untitled,2023.2.2,59.93234836516178,2023-11-11 13h19.07.357391 +0800,
8,condition_1/rightstar.PNG,space,,,,,1,16,41,14,,,,,,,,,177.10479199999997,,,,,,,,,,,,,,,,,,,,,,,,,,,,,,,,,,,,,,,,,,,,,177.04135569999994,177.10479199999997,177.5550811999999,177.55512649999991,178.0532705999999,178.4621403,178.3375173999999,178.33754379999993,179.65514209999992,179.65514209999992,,180.07192599999996,space,1,0.404563899999971,None,,,,,,,,,,,,,,,,,,,,,,,,,,,,,,,,,,,,,,,,,,,,,,,,,,,,,,,,,,,,001,001,2023-11-11_13h18.58.683,untitled,2023.2.2,59.93234836516178,2023-11-11 13h19.07.357391 +0800,
8,condition_1/blank.PNG,space,,,,,1,17,42,10,,,,,,,,,180.13946509999994,,,,,,,,,,,,,,,,,,,,,,,,,,,,,,,,,,,,,,,,,,,,,180.07295899999997,180.13946509999994,180.5875249999999,180.5875499,181.08649059999993,181.5177544999999,181.37073699999996,181.37077079999995,182.6877617,182.6877617,183.48639979999996,184.95462169999996,space,1,2.258326000000011,None,,,,,,,,,,,,,,,,,,,,,,,,,,,,,,,,,,,,,,,,,,,,,,,,,,,,,,,,,,,,001,001,2023-11-11_13h18.58.683,untitled,2023.2.2,59.93234836516178,2023-11-11 13h19.07.357391 +0800,
1,condition_1/rightstar.PNG,right,,,,,1,18,43,4,,,,,,,,,185.01727999999991,,,,,,,,,,,,,,,,,,,,,,,,,,,,,,,,,,,,,,,,,,,,,184.95565219999992,185.01727999999991,185.47080529999994,185.4708577,185.9695534,186.5112673,186.2546641,186.2547045,187.57179729999996,187.57179729999996,,187.95547079999994,right,1,0.3803572000000486,None,,,,,,,,,,,,,,,,,,,,,,,,,,,,,,,,,,,,,,,,,,,,,,,,,,,,,,,,,,,,001,001,2023-11-11_13h18.58.683,untitled,2023.2.2,59.93234836516178,2023-11-11 13h19.07.357391 +0800,
1,condition_1/blank.PNG,space,,,,,1,19,44,8,,,,,,,,,188.01352499999996,,,,,,,,,,,,,,,,,,,,,,,,,,,,,,,,,,,,,,,,,,,,,187.95653859999993,188.01352499999996,188.4705783999999,188.47060169999997,188.9699518,189.3402612,189.25433529999998,189.2543644,190.57110709999995,190.57110709999995,191.36976659999993,195.77150339999992,space,1,5.185802800000033,None,,,,,,,,,,,,,,,,,,,,,,,,,,,,,,,,,,,,,,,,,,,,,,,,,,,,,,,,,,,,001,001,2023-11-11_13h18.58.683,untitled,2023.2.2,59.93234836516178,2023-11-11 13h19.07.357391 +0800,
2,condition_1/blank.PNG,space,,,,,1,20,45,20,,,,,,,,,195.83594799999992,,,,,,,,,,,,,,,,,,,,,,,,,,,,,,,,,,,,,,,,,,,,,195.772559,195.83594799999992,196.28725079999992,196.28727379999998,196.78629219999993,197.11461299999996,197.0708323,197.0708581,198.38778219999995,198.38778219999995,199.1863383,200.02219029999992,space,1,1.6190818000000036,None,,,,,,,,,,,,,,,,,,,,,,,,,,,,,,,,,,,,,,,,,,,,,,,,,,,,,,,,,,,,001,001,2023-11-11_13h18.58.683,untitled,2023.2.2,59.93234836516178,2023-11-11 13h19.07.357391 +0800,
2,condition_1/leftstar.PNG,left,,,,,1,21,46,1,,,,,,,,,200.09583669999995,,,,,,,,,,,,,,,,,,,,,,,,,,,,,,,,,,,,,,,,,,,,,200.02334409999992,200.09583669999995,200.53748659999997,200.537508,201.0363094999999,201.61838709999995,201.32072469999991,201.3207536,202.6387393,202.6387393,,203.15638219999994,left,1,0.5048403999999209,None,,,,,,,,,,,,,,,,,,,,,,,,,,,,,,,,,,,,,,,,,,,,,,,,,,,,,,,,,,,,001,001,2023-11-11_13h18.58.683,untitled,2023.2.2,59.93234836516178,2023-11-11 13h19.07.357391 +0800,
9,condition_1/rightstar.PNG,space,,,,,1,22,47,7,,,,,,,,,203.21503559999996,,,,,,,,,,,,,,,,,,,,,,,,,,,,,,,,,,,,,,,,,,,,,203.15746159999992,203.21503559999996,203.670476,203.67049989999998,204.1701465,204.58981829999993,204.45453179999993,204.45458889999998,205.77205489999994,205.77205489999994,,206.45575499999995,space,1,0.6690436000000091,None,,,,,,,,,,,,,,,,,,,,,,,,,,,,,,,,,,,,,,,,,,,,,,,,,,,,,,,,,,,,001,001,2023-11-11_13h18.58.683,untitled,2023.2.2,59.93234836516178,2023-11-11 13h19.07.357391 +0800,
2,condition_1/blank.PNG,space,,,,,1,23,48,9,,,,,,,,,206.51664359999995,,,,,,,,,,,,,,,,,,,,,,,,,,,,,,,,,,,,,,,,,,,,,206.45681939999997,206.51664359999995,206.9707492,206.97080119999998,207.46977379999998,207.8441156,207.75435019999998,207.75438269999995,209.0709925,209.0709925,209.8697115,211.7547305999999,space,1,2.6724481999999625,None,,,,,,,,,,,,,,,,,,,,,,,,,,,,,,,,,,,,,,,,,,,,,,,,,,,,,,,,,,,,001,001,2023-11-11_13h18.58.683,untitled,2023.2.2,59.93234836516178,2023-11-11 13h19.07.357391 +0800,
9,condition_1/leftstar.PNG,space,,,,,1,24,49,19,,,,,,,,,211.81969359999994,,,,,,,,,,,,,,,,,,,,,,,,,,,,,,,,,,,,,,,,,,,,,211.7558277999999,211.81969359999994,212.27083699999991,212.2708695,212.7697111,213.19630029999996,213.0549375999999,213.0549727,214.37201289999996,214.37201289999996,,214.88996049999992,space,1,0.5051897999999255,None,,,,,,,,,,,,,,,,,,,,,,,,,,,,,,,,,,,,,,,,,,,,,,,,,,,,,,,,,,,,001,001,2023-11-11_13h18.58.683,untitled,2023.2.2,59.93234836516178,2023-11-11 13h19.07.357391 +0800,
,,,,,,,,,,,,,,,,,,,,,,,,,,,,,,,,,,,,,,,,,,,,,,,,,,,,,,,,,,,,,,,,,,,,,,,,,,,,,,,,214.89077469999995,214.90309209999998,214.90309209999998,222.08817639999995,space,7.177616199999989,None,,,,,,,,,,,,,,,,,,,,,,,,,,,,,,,,,,,,,,,,,,,,,,,,,,,,,001,001,2023-11-11_13h18.58.683,untitled,2023.2.2,59.93234836516178,2023-11-11 13h19.07.357391 +0800,
,,,,,,,,,,,,,,,,,,,,,,,,,,,,,,,,,,,,,,,,,,,,,,,,,,,,,,,,,,,,,,,,,,,,,,,,,,,,,,,,,,,,,,,222.08823339999992,222.1030601,222.1030601,228.45496049999997,space,6.336824299999989,None,,,,,,,,,,,,,,,,,,,,,,,,,,,,,,,,,,,,,,,,,,,,,,001,001,2023-11-11_13h18.58.683,untitled,2023.2.2,59.93234836516178,2023-11-11 13h19.07.357391 +0800,
9,test2/rightstar.PNG,right,,,,,,,,,0,0,0,3,,,,,228.61506109999993,,,,,,,,,,,,,,,,,,,,,,,,,,,,,,,,,,,,,,,,,,,,,,,,,,,,,,,,,,,,,,,,,,,,,,,,,,,228.46955249999996,228.61506109999993,228.97070859999997,228.9707366,229.47013319999996,230.09065509999994,229.75432049999995,229.7543548,231.07914099999994,231.07914099999994,231.55566779999992,right,0.46749160000001666,None,,,,,,,,,,,,,,,,,,,,,,,,,,,,,,,,001,001,2023-11-11_13h18.58.683,untitled,2023.2.2,59.93234836516178,2023-11-11 13h19.07.357391 +0800,
1,test2/blank.PNG,space,,,,,,,,,0,1,1,2,,,,,231.61416569999994,,,,,,,,,,,,,,,,,,,,,,,,,,,,,,,,,,,,,,,,,,,,,,,,,,,,,,,,,,,,,,,,,,,,,,,,,,,231.5569124,231.61416569999994,232.0705284999999,232.07055619999994,232.57001889999992,233.01482959999998,232.85393119999992,232.85395329999994,234.17094009999994,234.17094009999994,235.77144199999998,space,1.5855402999999342,None,234.96988,,,,,,,,,,,,,,,,,,,,,,,,,,,,,,,001,001,2023-11-11_13h18.58.683,untitled,2023.2.2,59.93234836516178,2023-11-11 13h19.07.357391 +0800,
2,test2/leftstar.PNG,space,,,,,,,,,0,2,2,4,,,,,235.83220159999996,,,,,,,,,,,,,,,,,,,,,,,,,,,,,,,,,,,,,,,,,,,,,,,,,,,,,,,,,,,,,,,,,,,,,,,,,,,235.77230739999993,235.83220159999996,236.28707539999994,236.28710019999994,236.78659879999998,237.39909869999997,237.07054959999994,237.07057309999993,238.38897459999998,238.38897459999998,239.0219553999999,space,0.6199974000001021,None,,,,,,,,,,,,,,,,,,,,,,,,,,,,,,,,001,001,2023-11-11_13h18.58.683,untitled,2023.2.2,59.93234836516178,2023-11-11 13h19.07.357391 +0800,
8,test2/rightstar.PNG,right,,,,,,,,,0,3,3,1,,,,,239.08465819999992,,,,,,,,,,,,,,,,,,,,,,,,,,,,,,,,,,,,,,,,,,,,,,,,,,,,,,,,,,,,,,,,,,,,,,,,,,,239.0228571,239.08465819999992,239.53739689999998,239.53744949999998,240.0369045,240.45622649999996,240.32076849999999,240.32080429999996,241.63909739999997,241.63909739999997,242.1051278,right,0.45533289999991666,None,,,,,,,,,,,,,,,,,,,,,,,,,,,,,,,,001,001,2023-11-11_13h18.58.683,untitled,2023.2.2,59.93234836516178,2023-11-11 13h19.07.357391 +0800,
1,test2/leftstar.PNG,space,,,,,,,,,0,4,4,0,,,,,242.2124240999999,,,,,,,,,,,,,,,,,,,,,,,,,,,,,,,,,,,,,,,,,,,,,,,,,,,,,,,,,,,,,,,,,,,,,,,,,,,242.10587829999997,242.2124240999999,242.62034469999992,242.6203802,243.11985189999996,243.5986064,243.40425619999996,243.4042844999999,244.72199639999997,244.72199639999997,245.25572449999993,space,0.5211891000000151,None,,,,,,,,,,,,,,,,,,,,,,,,,,,,,,,,001,001,2023-11-11_13h18.58.683,untitled,2023.2.2,59.93234836516178,2023-11-11 13h19.07.357391 +0800,
8,test2/leftstar.PNG,left,,,,,,,,,0,5,5,5,,,,,245.31786809999994,,,,,,,,,,,,,,,,,,,,,,,,,,,,,,,,,,,,,,,,,,,,,,,,,,,,,,,,,,,,,,,,,,,,,,,,,,,245.25674099999992,245.31786809999994,245.77051669999992,245.77053979999994,246.2701154,246.69383329999994,246.55385679999995,246.5538831,247.87218099999996,247.87218099999996,248.22218999999996,left,0.3456824999999526,None,,,,,,,,,,,,,,,,,,,,,,,,,,,,,,,,001,001,2023-11-11_13h18.58.683,untitled,2023.2.2,59.93234836516178,2023-11-11 13h19.07.357391 +0800,
,,,,,,,,,,,,,,,,,,,,,,,,,,,,,,,,,,,,,,,,,,,,,,,,,,,,,,,,,,,,,,,,,,,,,,,,,,,,,,,,,,,,,,,,,,,,,,,,,,,,,,,,,,,,,248.2228311,248.23623869999994,248.23623869999994,249.03821759999994,space,0.7882210000000214,None,,,,,,,,,,,,,,,,,,,,,,,,001,001,2023-11-11_13h18.58.683,untitled,2023.2.2,59.93234836516178,2023-11-11 13h19.07.357391 +0800,
,,,,,,,,,,,,,,,,,,,,,,,,,,,,,,,,,,,,,,,,,,,,,,,,,,,,,,,,,,,,,,,,,,,,,,,,,,,,,,,,,,,,,,,,,,,,,,,,,,,,,,,,,,,,,,,,,,,,249.03827579999995,249.05302169999993,249.05302169999993,249.854246,space,0.7920736999999463,None,,,,,,,,,,,,,,,,,001,001,2023-11-11_13h18.58.683,untitled,2023.2.2,59.93234836516178,2023-11-11 13h19.07.357391 +0800,
9,condition_2/blank.PNG,space,,,,,,,,,,,,,0,0,0,11,249.93823799999996,,,,,,,,,,,,,,,,,,,,,,,,,,,,,,,,,,,,,,,,,,,,,,,,,,,,,,,,,,,,,,,,,,,,,,,,,,,,,,,,,,,,,,,,,,,,,,,,,,,,,,,,249.87415739999994,249.93823799999996,250.37044119999996,250.37046799999996,250.87012949999996,251.2424793,251.15431979999994,251.15435289999994,252.472168,252.472168,253.28670169999998,255.40565619999995,space,1,2.918385100000023,None,001,001,2023-11-11_13h18.58.683,untitled,2023.2.2,59.93234836516178,2023-11-11 13h19.07.357391 +0800,
1,condition_2/leftstar.PNG,space,,,,,,,,,,,,,0,1,1,16,255.46474899999998,,,,,,,,,,,,,,,,,,,,,,,,,,,,,,,,,,,,,,,,,,,,,,,,,,,,,,,,,,,,,,,,,,,,,,,,,,,,,,,,,,,,,,,,,,,,,,,,,,,,,,,,255.4072708,255.46474899999998,255.9202553,255.9202712,256.42011949999994,256.9728831,256.7047458999999,256.704798,258.02220579999994,258.02220579999994,,258.3720930999999,space,1,0.3433724000000211,None,001,001,2023-11-11_13h18.58.683,untitled,2023.2.2,59.93234836516178,2023-11-11 13h19.07.357391 +0800,
1,condition_2/leftstar.PNG,space,,,,,,,,,,,,,0,2,2,0,258.44938819999993,,,,,,,,,,,,,,,,,,,,,,,,,,,,,,,,,,,,,,,,,,,,,,,,,,,,,,,,,,,,,,,,,,,,,,,,,,,,,,,,,,,,,,,,,,,,,,,,,,,,,,,,258.37315119999994,258.44938819999993,258.88728779999997,258.88731499999994,259.3864205,259.81848489999993,259.6711742,259.67120409999995,260.98880699999995,260.98880699999995,,261.3724490999999,space,1,0.38132519999999204,None,001,001,2023-11-11_13h18.58.683,untitled,2023.2.2,59.93234836516178,2023-11-11 13h19.07.357391 +0800,
9,condition_2/rightstar.PNG,right,,,,,,,,,,,,,0,3,3,15,261.43128939999997,,,,,,,,,,,,,,,,,,,,,,,,,,,,,,,,,,,,,,,,,,,,,,,,,,,,,,,,,,,,,,,,,,,,,,,,,,,,,,,,,,,,,,,,,,,,,,,,,,,,,,,,261.37354089999997,261.43128939999997,261.8872894,261.8873443,262.3863655,262.8024684999999,262.6707928999999,262.670847,263.9887478999999,263.9887478999999,,264.3555685,right,1,0.35792259999993803,None,001,001,2023-11-11_13h18.58.683,untitled,2023.2.2,59.93234836516178,2023-11-11 13h19.07.357391 +0800,
9,condition_2/leftstar.PNG,left,,,,,,,,,,,,,0,4,4,3,264.4122158,,,,,,,,,,,,,,,,,,,,,,,,,,,,,,,,,,,,,,,,,,,,,,,,,,,,,,,,,,,,,,,,,,,,,,,,,,,,,,,,,,,,,,,,,,,,,,,,,,,,,,,,264.35666519999995,264.4122158,264.8705953,264.8706133999999,265.37011099999995,265.77935719999994,265.6542048,265.6542407999999,266.9720248,266.9720248,,267.38937369999996,left,1,0.40212589999998727,None,001,001,2023-11-11_13h18.58.683,untitled,2023.2.2,59.93234836516178,2023-11-11 13h19.07.357391 +0800,
2,condition_2/blank.PNG,space,,,,,,,,,,,,,0,5,5,9,267.4641191999999,,,,,,,,,,,,,,,,,,,,,,,,,,,,,,,,,,,,,,,,,,,,,,,,,,,,,,,,,,,,,,,,,,,,,,,,,,,,,,,,,,,,,,,,,,,,,,,,,,,,,,,,267.3906508,267.4641191999999,267.9042498,267.9042850999999,268.4031220999999,268.7933795,268.6879032999999,268.6879432999999,270.00436719999993,270.00436719999993,270.80315229999997,272.0881334999999,space,1,2.0770344000000023,None,001,001,2023-11-11_13h18.58.683,untitled,2023.2.2,59.93234836516178,2023-11-11 13h19.07.357391 +0800,
2,condition_2/leftstar.PNG,space,,,,,,,,,,,,,0,6,6,17,272.1489164999999,,,,,,,,,,,,,,,,,,,,,,,,,,,,,,,,,,,,,,,,,,,,,,,,,,,,,,,,,,,,,,,,,,,,,,,,,,,,,,,,,,,,,,,,,,,,,,,,,,,,,,,,272.0896821,272.1489164999999,272.6040865,272.6041451,273.10303669999996,273.6541917999999,273.38886619999994,273.3889018,274.70534569999995,274.70534569999995,,275.1555085,space,1,0.43810530000007475,None,001,001,2023-11-11_13h18.58.683,untitled,2023.2.2,59.93234836516178,2023-11-11 13h19.07.357391 +0800,
1,condition_2/rightstar.PNG,space,,,,,,,,,,,,,0,7,7,12,275.21526229999995,,,,,,,,,,,,,,,,,,,,,,,,,,,,,,,,,,,,,,,,,,,,,,,,,,,,,,,,,,,,,,,,,,,,,,,,,,,,,,,,,,,,,,,,,,,,,,,,,,,,,,,,275.15641719999996,275.21526229999995,275.6706068,275.67066409999995,276.1698270999999,276.5891133,276.4544826,276.45451679999996,277.7723024999999,277.7723024999999,,278.33895029999996,space,1,0.5561983000000055,None,001,001,2023-11-11_13h18.58.683,untitled,2023.2.2,59.93234836516178,2023-11-11 13h19.07.357391 +0800,
2,condition_2/leftstar.PNG,space,,,,,,,,,,,,,0,8,8,1,278.40053379999995,,,,,,,,,,,,,,,,,,,,,,,,,,,,,,,,,,,,,,,,,,,,,,,,,,,,,,,,,,,,,,,,,,,,,,,,,,,,,,,,,,,,,,,,,,,,,,,,,,,,,,,,278.33998999999994,278.40053379999995,278.8537381,278.85377029999995,279.3536239,279.76011159999996,279.6380015,279.6380307999999,280.9553641,280.9553641,,281.45655479999994,space,1,0.4830785000000333,None,001,001,2023-11-11_13h18.58.683,untitled,2023.2.2,59.93234836516178,2023-11-11 13h19.07.357391 +0800,
9,condition_2/leftstar.PNG,left,,,,,,,,,,,,,0,9,9,19,281.5063442999999,,,,,,,,,,,,,,,,,,,,,,,,,,,,,,,,,,,,,,,,,,,,,,,,,,,,,,,,,,,,,,,,,,,,,,,,,,,,,,,,,,,,,,,,,,,,,,,,,,,,,,,,281.45764769999994,281.5063442999999,281.97094519999996,281.9709780999999,282.46982549999996,282.86982649999993,282.75442699999996,282.7544588999999,284.0719634999999,284.0719634999999,,284.43890709999994,left,1,0.36386690000006183,None,001,001,2023-11-11_13h18.58.683,untitled,2023.2.2,59.93234836516178,2023-11-11 13h19.07.357391 +0800,
1,condition_2/rightstar.PNG,space,,,,,,,,,,,,,0,10,10,4,284.4945937,,,,,,,,,,,,,,,,,,,,,,,,,,,,,,,,,,,,,,,,,,,,,,,,,,,,,,,,,,,,,,,,,,,,,,,,,,,,,,,,,,,,,,,,,,,,,,,,,,,,,,,,284.4400452,284.4945937,284.9541406999999,284.9541992999999,285.45332829999995,285.87351809999996,285.7378908999999,285.73792819999994,287.0555399,287.0555399,,287.4559892,space,1,0.39161969999997837,None,001,001,2023-11-11_13h18.58.683,untitled,2023.2.2,59.93234836516178,2023-11-11 13h19.07.357391 +0800,
8,condition_2/blank.PNG,space,,,,,,,,,,,,,0,11,11,10,287.5159966,,,,,,,,,,,,,,,,,,,,,,,,,,,,,,,,,,,,,,,,,,,,,,,,,,,,,,,,,,,,,,,,,,,,,,,,,,,,,,,,,,,,,,,,,,,,,,,,,,,,,,,,287.4576619999999,287.5159966,287.9707513999999,287.97077879999995,288.47004219999997,288.88951309999993,288.7549548999999,288.7549868,290.0711735,290.0711735,290.86960279999994,291.85503389999997,space,1,1.7740138000000343,None,001,001,2023-11-11_13h18.58.683,untitled,2023.2.2,59.93234836516178,2023-11-11 13h19.07.357391 +0800,
1,condition_2/blank.PNG,space,,,,,,,,,,,,,0,12,12,8,291.96004259999995,,,,,,,,,,,,,,,,,,,,,,,,,,,,,,,,,,,,,,,,,,,,,,,,,,,,,,,,,,,,,,,,,,,,,,,,,,,,,,,,,,,,,,,,,,,,,,,,,,,,,,,,291.90804119999996,291.96004259999995,292.3712571,292.37128369999994,292.8701076,293.19270499999993,293.15418769999997,293.15421849999996,294.4713383999999,294.4713383999999,295.26991179999993,295.30588809999995,space,1,0.8326227000000017,None,001,001,2023-11-11_13h18.58.683,untitled,2023.2.2,59.93234836516178,2023-11-11 13h19.07.357391 +0800,
9,condition_2/rightstar.PNG,right,,,,,,,,,,,,,0,13,13,7,295.35801129999993,,,,,,,,,,,,,,,,,,,,,,,,,,,,,,,,,,,,,,,,,,,,,,,,,,,,,,,,,,,,,,,,,,,,,,,,,,,,,,,,,,,,,,,,,,,,,,,,,,,,,,,,295.3068999999999,295.35801129999993,295.820659,295.8206834,296.3199414999999,296.88735009999994,296.6054545999999,296.6055152,297.9218743,297.9218743,,298.35668309999994,right,1,0.433237800000029,None,001,001,2023-11-11_13h18.58.683,untitled,2023.2.2,59.93234836516178,2023-11-11 13h19.07.357391 +0800,
8,condition_2/rightstar.PNG,right,,,,,,,,,,,,,0,14,14,23,298.4149149,,,,,,,,,,,,,,,,,,,,,,,,,,,,,,,,,,,,,,,,,,,,,,,,,,,,,,,,,,,,,,,,,,,,,,,,,,,,,,,,,,,,,,,,,,,,,,,,,,,,,,,,298.3577816999999,298.4149149,298.87056099999995,298.87061759999995,299.3698026999999,299.7782027999999,299.65431079999996,299.6543489999999,300.9718674999999,300.9718674999999,,301.43940269999996,right,1,0.46609109999997145,None,001,001,2023-11-11_13h18.58.683,untitled,2023.2.2,59.93234836516178,2023-11-11 13h19.07.357391 +0800,
8,condition_2/leftstar.PNG,left,,,,,,,,,,,,,0,15,15,2,301.4962183,,,,,,,,,,,,,,,,,,,,,,,,,,,,,,,,,,,,,,,,,,,,,,,,,,,,,,,,,,,,,,,,,,,,,,,,,,,,,,,,,,,,,,,,,,,,,,,,,,,,,,,,301.44059689999995,301.4962183,301.9539929,301.95402,302.45313939999994,302.86781229999997,302.738025,302.7380568,304.0553596,304.0553596,,304.52296149999995,left,1,0.44995830000004844,None,001,001,2023-11-11_13h18.58.683,untitled,2023.2.2,59.93234836516178,2023-11-11 13h19.07.357391 +0800,
8,condition_2/leftstar.PNG,left,,,,,,,,,,,,,0,16,16,18,304.61563479999995,,,,,,,,,,,,,,,,,,,,,,,,,,,,,,,,,,,,,,,,,,,,,,,,,,,,,,,,,,,,,,,,,,,,,,,,,,,,,,,,,,,,,,,,,,,,,,,,,,,,,,,,304.5242222999999,304.61563479999995,305.0375045999999,305.0375386999999,305.53669489999993,305.9617574,305.8206063,305.8206332,307.13860639999996,307.13860639999996,,307.57370679999997,left,1,0.42810069999995903,None,001,001,2023-11-11_13h18.58.683,untitled,2023.2.2,59.93234836516178,2023-11-11 13h19.07.357391 +0800,
8,condition_2/blank.PNG,space,,,,,,,,,,,,,0,17,17,24,307.63842569999997,,,,,,,,,,,,,,,,,,,,,,,,,,,,,,,,,,,,,,,,,,,,,,,,,,,,,,,,,,,,,,,,,,,,,,,,,,,,,,,,,,,,,,,,,,,,,,,,,,,,,,,,307.5747291,307.63842569999997,308.0874582,308.0874854,308.58648949999997,308.95986529999993,308.87114339999994,308.871174,310.18785519999994,310.18785519999994,310.98656559999995,311.9716476,space,1,1.7722193000000743,None,001,001,2023-11-11_13h18.58.683,untitled,2023.2.2,59.93234836516178,2023-11-11 13h19.07.357391 +0800,
2,condition_2/rightstar.PNG,space,,,,,,,,,,,,,0,18,18,13,312.0281851,,,,,,,,,,,,,,,,,,,,,,,,,,,,,,,,,,,,,,,,,,,,,,,,,,,,,,,,,,,,,,,,,,,,,,,,,,,,,,,,,,,,,,,,,,,,,,,,,,,,,,,,311.97315549999996,312.0281851,312.4871931,312.4872541,312.9864626,313.52848059999997,313.270986,313.2710129999999,314.58857679999994,314.58857679999994,,314.97249969999996,space,1,0.3681457999999793,None,001,001,2023-11-11_13h18.58.683,untitled,2023.2.2,59.93234836516178,2023-11-11 13h19.07.357391 +0800,
2,condition_2/rightstar.PNG,space,,,,,,,,,,,,,0,19,19,5,315.03794589999995,,,,,,,,,,,,,,,,,,,,,,,,,,,,,,,,,,,,,,,,,,,,,,,,,,,,,,,,,,,,,,,,,,,,,,,,,,,,,,,,,,,,,,,,,,,,,,,,,,,,,,,,314.97387459999993,315.03794589999995,315.4873272,315.48738319999995,315.9865341,316.4088044,316.2707994,316.2708275,317.588749,317.588749,,317.95688169999994,space,1,0.36048060000007354,None,001,001,2023-11-11_13h18.58.683,untitled,2023.2.2,59.93234836516178,2023-11-11 13h19.07.357391 +0800,
8,condition_2/rightstar.PNG,right,,,,,,,,,,,,,0,20,20,14,318.0137386,,,,,,,,,,,,,,,,,,,,,,,,,,,,,,,,,,,,,,,,,,,,,,,,,,,,,,,,,,,,,,,,,,,,,,,,,,,,,,,,,,,,,,,,,,,,,,,,,,,,,,,,317.9580494999999,318.0137386,318.47076859999993,318.4707939,318.9699289,319.37680479999995,319.25432879999994,319.25435749999997,320.5721675,320.5721675,,321.0054091999999,right,1,0.42100329999993846,None,001,001,2023-11-11_13h18.58.683,untitled,2023.2.2,59.93234836516178,2023-11-11 13h19.07.357391 +0800,
8,condition_2/rightstar.PNG,right,,,,,,,,,,,,,0,21,21,6,321.0755554,,,,,,,,,,,,,,,,,,,,,,,,,,,,,,,,,,,,,,,,,,,,,,,,,,,,,,,,,,,,,,,,,,,,,,,,,,,,,,,,,,,,,,,,,,,,,,,,,,,,,,,,321.0064302999999,321.0755554,321.52087789999996,321.5209064999999,322.0202422,322.4328243,322.3043349999999,322.3043642,323.6221006999999,323.6221006999999,,324.0886099999999,right,1,0.4514490000000251,None,001,001,2023-11-11_13h18.58.683,untitled,2023.2.2,59.93234836516178,2023-11-11 13h19.07.357391 +0800,
1,condition_2/leftstar.PNG,space,,,,,,,,,,,,,0,22,22,22,324.1908429,,,,,,,,,,,,,,,,,,,,,,,,,,,,,,,,,,,,,,,,,,,,,,,,,,,,,,,,,,,,,,,,,,,,,,,,,,,,,,,,,,,,,,,,,,,,,,,,,,,,,,,,324.0898030999999,324.1908429,324.6040125999999,324.6040455,325.1034496,325.5389098999999,325.38782819999994,325.3878813,326.7051682,326.7051682,,327.1225705999999,space,1,0.4010602000000745,None,001,001,2023-11-11_13h18.58.683,untitled,2023.2.2,59.93234836516178,2023-11-11 13h19.07.357391 +0800,
9,condition_2/leftstar.PNG,left,,,,,,,,,,,,,0,23,23,20,327.2214464,,,,,,,,,,,,,,,,,,,,,,,,,,,,,,,,,,,,,,,,,,,,,,,,,,,,,,,,,,,,,,,,,,,,,,,,,,,,,,,,,,,,,,,,,,,,,,,,,,,,,,,,327.12421399999994,327.2214464,327.6373681,327.63739609999993,328.1365661,328.5419104,328.4214129999999,328.4214684,329.7388175,329.7388175,,330.1395946,left,1,0.394504999999981,None,001,001,2023-11-11_13h18.58.683,untitled,2023.2.2,59.93234836516178,2023-11-11 13h19.07.357391 +0800,
2,condition_2/rightstar.PNG,space,,,,,,,,,,,,,0,24,24,21,330.1935621,,,,,,,,,,,,,,,,,,,,,,,,,,,,,,,,,,,,,,,,,,,,,,,,,,,,,,,,,,,,,,,,,,,,,,,,,,,,,,,,,,,,,,,,,,,,,,,,,,,,,,,,330.14060959999995,330.1935621,330.6542998,330.65434329999994,331.1530332,331.56610149999995,331.43790449999995,331.43794219999995,332.75556169999993,332.75556169999993,,333.2224855999999,space,1,0.4594640000000254,None,001,001,2023-11-11_13h18.58.683,untitled,2023.2.2,59.93234836516178,2023-11-11 13h19.07.357391 +0800,
2,condition_2/blank.PNG,space,,,,,,,,,,,,,1,0,25,9,333.28548379999995,,,,,,,,,,,,,,,,,,,,,,,,,,,,,,,,,,,,,,,,,,,,,,,,,,,,,,,,,,,,,,,,,,,,,,,,,,,,,,,,,,,,,,,,,,,,,,,,,,,,,,,,333.2235900999999,333.28548379999995,333.7372608999999,333.7372869999999,334.2363378,334.6552931,334.5208864,334.52091699999994,335.83786369999996,335.83786369999996,336.6367968999999,336.9714037,space,1,1.1229035000000067,None,001,001,2023-11-11_13h18.58.683,untitled,2023.2.2,59.93234836516178,2023-11-11 13h19.07.357391 +0800,
2,condition_2/rightstar.PNG,space,,,,,,,,,,,,,1,1,26,13,337.0353537,,,,,,,,,,,,,,,,,,,,,,,,,,,,,,,,,,,,,,,,,,,,,,,,,,,,,,,,,,,,,,,,,,,,,,,,,,,,,,,,,,,,,,,,,,,,,,,,,,,,,,,,336.9730096999999,337.0353537,337.48753509999995,337.4875618,337.98641499999997,338.49890689999995,338.2713157999999,338.27134849999993,339.5887835,339.5887835,,340.00541929999997,space,1,0.4111844999999903,None,001,001,2023-11-11_13h18.58.683,untitled,2023.2.2,59.93234836516178,2023-11-11 13h19.07.357391 +0800,
2,condition_2/leftstar.PNG,space,,,,,,,,,,,,,1,2,27,17,340.0677294999999,,,,,,,,,,,,,,,,,,,,,,,,,,,,,,,,,,,,,,,,,,,,,,,,,,,,,,,,,,,,,,,,,,,,,,,,,,,,,,,,,,,,,,,,,,,,,,,,,,,,,,,,340.0064362999999,340.0677294999999,340.5205639999999,340.52059269999995,341.0200047999999,341.4224104,341.30449309999995,341.3045188,342.6227199,342.6227199,,343.18866919999994,space,1,0.54863940000007,None,001,001,2023-11-11_13h18.58.683,untitled,2023.2.2,59.93234836516178,2023-11-11 13h19.07.357391 +0800,
9,condition_2/leftstar.PNG,left,,,,,,,,,,,,,1,3,28,20,343.24320149999994,,,,,,,,,,,,,,,,,,,,,,,,,,,,,,,,,,,,,,,,,,,,,,,,,,,,,,,,,,,,,,,,,,,,,,,,,,,,,,,,,,,,,,,,,,,,,,,,,,,,,,,,343.1895859,343.24320149999994,343.70412009999995,343.70414729999993,344.2036301999999,344.6123295,344.4880111,344.48805719999996,345.80539409999994,345.80539409999994,,346.17250079999997,left,1,0.35813949999999295,None,001,001,2023-11-11_13h18.58.683,untitled,2023.2.2,59.93234836516178,2023-11-11 13h19.07.357391 +0800,
8,condition_2/rightstar.PNG,right,,,,,,,,,,,,,1,4,29,14,346.2373432999999,,,,,,,,,,,,,,,,,,,,,,,,,,,,,,,,,,,,,,,,,,,,,,,,,,,,,,,,,,,,,,,,,,,,,,,,,,,,,,,,,,,,,,,,,,,,,,,,,,,,,,,,346.1736671,346.2373432999999,346.6878809,346.6879169,347.1865105999999,347.5912123999999,347.4709429999999,347.4709704999999,348.7885758,348.7885758,,349.2554235,right,1,0.45956150000006346,None,001,001,2023-11-11_13h18.58.683,untitled,2023.2.2,59.93234836516178,2023-11-11 13h19.07.357391 +0800,
1,condition_2/leftstar.PNG,space,,,,,,,,,,,,,1,5,30,0,349.3692484999999,,,,,,,,,,,,,,,,,,,,,,,,,,,,,,,,,,,,,,,,,,,,,,,,,,,,,,,,,,,,,,,,,,,,,,,,,,,,,,,,,,,,,,,,,,,,,,,,,,,,,,,,349.25646329999995,349.3692484999999,349.7705969,349.7706257,350.2701794999999,350.7039651,350.55434479999997,350.55437199999994,351.87233219999996,351.87233219999996,,352.32163249999996,space,1,0.43313499999999294,None,001,001,2023-11-11_13h18.58.683,untitled,2023.2.2,59.93234836516178,2023-11-11 13h19.07.357391 +0800,
8,condition_2/blank.PNG,space,,,,,,,,,,,,,1,6,31,24,352.3809569,,,,,,,,,,,,,,,,,,,,,,,,,,,,,,,,,,,,,,,,,,,,,,,,,,,,,,,,,,,,,,,,,,,,,,,,,,,,,,,,,,,,,,,,,,,,,,,,,,,,,,,,352.32266759999993,352.3809569,352.8376553999999,352.83768239999995,353.3363518,353.7313527,353.6221524,353.6222044,354.93764209999995,354.93764209999995,355.736501,357.3895629,space,1,2.4451603999999634,None,001,001,2023-11-11_13h18.58.683,untitled,2023.2.2,59.93234836516178,2023-11-11 13h19.07.357391 +0800,
2,condition_2/leftstar.PNG,space,,,,,,,,,,,,,1,7,32,1,357.45302189999995,,,,,,,,,,,,,,,,,,,,,,,,,,,,,,,,,,,,,,,,,,,,,,,,,,,,,,,,,,,,,,,,,,,,,,,,,,,,,,,,,,,,,,,,,,,,,,,,,,,,,,,,357.39051799999993,357.45302189999995,357.90373969999996,357.9037856,358.40318289999993,358.9237508,358.6879101999999,358.68794259999993,360.0051376,360.0051376,,360.3719814,space,1,0.3511483000000908,None,001,001,2023-11-11_13h18.58.683,untitled,2023.2.2,59.93234836516178,2023-11-11 13h19.07.357391 +0800,
8,condition_2/leftstar.PNG,left,,,,,,,,,,,,,1,8,33,2,360.42740489999994,,,,,,,,,,,,,,,,,,,,,,,,,,,,,,,,,,,,,,,,,,,,,,,,,,,,,,,,,,,,,,,,,,,,,,,,,,,,,,,,,,,,,,,,,,,,,,,,,,,,,,,,360.37322859999995,360.42740489999994,360.8876328,360.8876881,361.3863924,361.7947767999999,361.6709078,361.67095759999995,362.98862769999994,362.98862769999994,,363.45623679999994,left,1,0.4642039999999952,None,001,001,2023-11-11_13h18.58.683,untitled,2023.2.2,59.93234836516178,2023-11-11 13h19.07.357391 +0800,
9,condition_2/blank.PNG,space,,,,,,,,,,,,,1,9,34,11,363.53702899999996,,,,,,,,,,,,,,,,,,,,,,,,,,,,,,,,,,,,,,,,,,,,,,,,,,,,,,,,,,,,,,,,,,,,,,,,,,,,,,,,,,,,,,,,,,,,,,,,,,,,,,,,363.45675099999994,363.53702899999996,363.9706306999999,363.97064809999995,364.4699896999999,364.8451738,364.754144,364.7541712,366.07083439999997,366.07083439999997,366.8696317,368.47056309999994,space,1,2.393854699999906,None,001,001,2023-11-11_13h18.58.683,untitled,2023.2.2,59.93234836516178,2023-11-11 13h19.07.357391 +0800,
8,condition_2/rightstar.PNG,right,,,,,,,,,,,,,1,10,35,6,368.54362059999994,,,,,,,,,,,,,,,,,,,,,,,,,,,,,,,,,,,,,,,,,,,,,,,,,,,,,,,,,,,,,,,,,,,,,,,,,,,,,,,,,,,,,,,,,,,,,,,,,,,,,,,,368.4712394999999,368.54362059999994,368.98731069999997,368.9873341,369.47020269999996,370.0694198,369.75383509999995,369.7538814999999,371.088838,371.088838,,371.50586109999995,right,1,0.4060752999999977,None,001,001,2023-11-11_13h18.58.683,untitled,2023.2.2,59.93234836516178,2023-11-11 13h19.07.357391 +0800,
1,condition_2/blank.PNG,space,,,,,,,,,,,,,1,11,36,8,371.5577217,,,,,,,,,,,,,,,,,,,,,,,,,,,,,,,,,,,,,,,,,,,,,,,,,,,,,,,,,,,,,,,,,,,,,,,,,,,,,,,,,,,,,,,,,,,,,,,,,,,,,,,,371.5070225999999,371.5577217,372.0204005999999,372.02042729999994,372.5196965,372.8853871,372.8036811999999,372.80369989999997,374.12106859999994,374.12106859999994,374.93636219999996,377.62206489999994,space,1,3.4938558000000057,None,001,001,2023-11-11_13h18.58.683,untitled,2023.2.2,59.93234836516178,2023-11-11 13h19.07.357391 +0800,
2,condition_2/rightstar.PNG,space,,,,,,,,,,,,,1,12,37,5,377.6942702,,,,,,,,,,,,,,,,,,,,,,,,,,,,,,,,,,,,,,,,,,,,,,,,,,,,,,,,,,,,,,,,,,,,,,,,,,,,,,,,,,,,,,,,,,,,,,,,,,,,,,,,377.6237427,377.6942702,378.1379833,378.1380755,378.63635969999996,379.0838669,378.92071769999995,378.9207318,380.2388625,380.2388625,,380.92158599999993,space,1,0.6735188999999764,None,001,001,2023-11-11_13h18.58.683,untitled,2023.2.2,59.93234836516178,2023-11-11 13h19.07.357391 +0800,
9,condition_2/leftstar.PNG,left,,,,,,,,,,,,,1,13,38,3,380.9798052,,,,,,,,,,,,,,,,,,,,,,,,,,,,,,,,,,,,,,,,,,,,,,,,,,,,,,,,,,,,,,,,,,,,,,,,,,,,,,,,,,,,,,,,,,,,,,,,,,,,,,,,380.9225882999999,380.9798052,381.4373069999999,381.43733729999997,381.93704649999995,382.33962109999993,382.2206264,382.22066899999993,383.5387844999999,383.5387844999999,,384.054491,left,1,0.5003398999999717,None,001,001,2023-11-11_13h18.58.683,untitled,2023.2.2,59.93234836516178,2023-11-11 13h19.07.357391 +0800,
1,condition_2/leftstar.PNG,space,,,,,,,,,,,,,1,14,39,16,384.10510969999996,,,,,,,,,,,,,,,,,,,,,,,,,,,,,,,,,,,,,,,,,,,,,,,,,,,,,,,,,,,,,,,,,,,,,,,,,,,,,,,,,,,,,,,,,,,,,,,,,,,,,,,,384.0549718,384.10510969999996,384.5703274,384.5703562,385.06963469999994,385.47669759999997,385.3537938999999,385.35381169999994,386.67186159999994,386.67186159999994,,387.4383796999999,space,1,0.760113199999978,None,001,001,2023-11-11_13h18.58.683,untitled,2023.2.2,59.93234836516178,2023-11-11 13h19.07.357391 +0800,
1,condition_2/rightstar.PNG,space,,,,,,,,,,,,,1,15,40,12,387.49325579999993,,,,,,,,,,,,,,,,,,,,,,,,,,,,,,,,,,,,,,,,,,,,,,,,,,,,,,,,,,,,,,,,,,,,,,,,,,,,,,,,,,,,,,,,,,,,,,,,,,,,,,,,387.4392532999999,387.49325579999993,387.95376969999995,387.9537911,388.45293849999996,388.86179689999994,388.7371859,388.737213,390.0551518,390.0551518,,390.6239668999999,space,1,0.5563584999999875,None,001,001,2023-11-11_13h18.58.683,untitled,2023.2.2,59.93234836516178,2023-11-11 13h19.07.357391 +0800,
8,condition_2/rightstar.PNG,right,,,,,,,,,,,,,1,16,41,23,390.6784619,,,,,,,,,,,,,,,,,,,,,,,,,,,,,,,,,,,,,,,,,,,,,,,,,,,,,,,,,,,,,,,,,,,,,,,,,,,,,,,,,,,,,,,,,,,,,,,,,,,,,,,,390.6244029999999,390.6784619,391.1370697,391.13708569999994,391.63645329999997,392.0711871,391.9207412999999,391.9207771,393.2382913,393.2382913,,393.6556006999999,right,1,0.40252410000005057,None,001,001,2023-11-11_13h18.58.683,untitled,2023.2.2,59.93234836516178,2023-11-11 13h19.07.357391 +0800,
1,condition_2/rightstar.PNG,space,,,,,,,,,,,,,1,17,42,4,393.7367342,,,,,,,,,,,,,,,,,,,,,,,,,,,,,,,,,,,,,,,,,,,,,,,,,,,,,,,,,,,,,,,,,,,,,,,,,,,,,,,,,,,,,,,,,,,,,,,,,,,,,,,,393.6567680999999,393.7367342,394.170441,394.1704664,394.6696726,395.0927369,394.9540814999999,394.95410989999993,396.27205189999995,396.27205189999995,,396.68820629999993,space,1,0.41313930000001164,None,001,001,2023-11-11_13h18.58.683,untitled,2023.2.2,59.93234836516178,2023-11-11 13h19.07.357391 +0800,
9,condition_2/rightstar.PNG,right,,,,,,,,,,,,,1,18,43,7,396.7522226,,,,,,,,,,,,,,,,,,,,,,,,,,,,,,,,,,,,,,,,,,,,,,,,,,,,,,,,,,,,,,,,,,,,,,,,,,,,,,,,,,,,,,,,,,,,,,,,,,,,,,,,396.6887704999999,396.7522226,397.20368129999997,397.2036979999999,397.70308149999994,398.11973639999997,397.9877305,397.98776669999995,399.3050919,399.3050919,,399.75466429999994,right,1,0.4410878999999568,None,001,001,2023-11-11_13h18.58.683,untitled,2023.2.2,59.93234836516178,2023-11-11 13h19.07.357391 +0800,
1,condition_2/leftstar.PNG,space,,,,,,,,,,,,,1,19,44,22,399.81997939999997,,,,,,,,,,,,,,,,,,,,,,,,,,,,,,,,,,,,,,,,,,,,,,,,,,,,,,,,,,,,,,,,,,,,,,,,,,,,,,,,,,,,,,,,,,,,,,,,,,,,,,,,399.75508919999993,399.81997939999997,400.2702084,400.2702598999999,400.76986279999994,401.1756730999999,401.0537226,401.0537448,402.3719226999999,402.3719226999999,,403.155176,space,1,0.7793381000000181,None,001,001,2023-11-11_13h18.58.683,untitled,2023.2.2,59.93234836516178,2023-11-11 13h19.07.357391 +0800,
2,condition_2/rightstar.PNG,space,,,,,,,,,,,,,1,20,45,21,403.20405889999995,,,,,,,,,,,,,,,,,,,,,,,,,,,,,,,,,,,,,,,,,,,,,,,,,,,,,,,,,,,,,,,,,,,,,,,,,,,,,,,,,,,,,,,,,,,,,,,,,,,,,,,,403.1557796999999,403.20405889999995,403.6703235,403.6703365999999,404.16974789999995,404.5849051,404.45372409999993,404.45374559999993,405.7721901,405.7721901,,406.27185499999996,space,1,0.49430019999999786,None,001,001,2023-11-11_13h18.58.683,untitled,2023.2.2,59.93234836516178,2023-11-11 13h19.07.357391 +0800,
9,condition_2/leftstar.PNG,left,,,,,,,,,,,,,1,21,46,19,406.3262146999999,,,,,,,,,,,,,,,,,,,,,,,,,,,,,,,,,,,,,,,,,,,,,,,,,,,,,,,,,,,,,,,,,,,,,,,,,,,,,,,,,,,,,,,,,,,,,,,,,,,,,,,,406.27255059999993,406.3262146999999,406.78764649999994,406.7877042,407.2865049999999,407.6961812999999,407.5711384,407.5711566,408.88853529999994,408.88853529999994,,409.28860969999994,left,1,0.3897719000000279,None,001,001,2023-11-11_13h18.58.683,untitled,2023.2.2,59.93234836516178,2023-11-11 13h19.07.357391 +0800,
8,condition_2/blank.PNG,space,,,,,,,,,,,,,1,22,47,10,409.3487660999999,,,,,,,,,,,,,,,,,,,,,,,,,,,,,,,,,,,,,,,,,,,,,,,,,,,,,,,,,,,,,,,,,,,,,,,,,,,,,,,,,,,,,,,,,,,,,,,,,,,,,,,,409.289633,409.3487660999999,409.8036132,409.8036284,410.3031056,410.72470969999995,410.5871472,410.5871697,411.9045835999999,411.9045835999999,412.70315919999996,414.08808939999994,space,1,2.177346400000033,None,001,001,2023-11-11_13h18.58.683,untitled,2023.2.2,59.93234836516178,2023-11-11 13h19.07.357391 +0800,
8,condition_2/leftstar.PNG,left,,,,,,,,,,,,,1,23,48,18,414.14867979999997,,,,,,,,,,,,,,,,,,,,,,,,,,,,,,,,,,,,,,,,,,,,,,,,,,,,,,,,,,,,,,,,,,,,,,,,,,,,,,,,,,,,,,,,,,,,,,,,,,,,,,,,414.0892121999999,414.14867979999997,414.6039917999999,414.60403999999994,415.10299969999994,415.6625441,415.3875919999999,415.38760749999994,416.7063558,416.7063558,,417.0889509,left,1,0.37205280000000585,None,001,001,2023-11-11_13h18.58.683,untitled,2023.2.2,59.93234836516178,2023-11-11 13h19.07.357391 +0800,
9,condition_2/rightstar.PNG,right,,,,,,,,,,,,,1,24,49,15,417.1484279,,,,,,,,,,,,,,,,,,,,,,,,,,,,,,,,,,,,,,,,,,,,,,,,,,,,,,,,,,,,,,,,,,,,,,,,,,,,,,,,,,,,,,,,,,,,,,,,,,,,,,,,417.09007529999997,417.1484279,417.60392089999993,417.6039485,418.1030902,418.52751709999995,418.38734049999994,418.38739499999997,419.7056174999999,419.7056174999999,,420.07146149999994,right,1,0.36226060000001326,None,001,001,2023-11-11_13h18.58.683,untitled,2023.2.2,59.93234836516178,2023-11-11 13h19.07.357391 +0800,
