stimuli,star,CorrectAns,trials_3.thisRepN,trials_3.thisTrialN,trials_3.thisN,trials_3.thisIndex,trials.thisRepN,trials.thisTrialN,trials.thisN,trials.thisIndex,trials_4.thisRepN,trials_4.thisTrialN,trials_4.thisN,trials_4.thisIndex,trials_2.thisRepN,trials_2.thisTrialN,trials_2.thisN,trials_2.thisIndex,thisRow.t,notes,routine_21.started,text_9.started,key_resp_8.started,routine_21.stopped,key_resp_8.keys,key_resp_8.rt,key_resp_8.duration,introduction.started,text_6.started,key_resp_5.started,introduction.stopped,key_resp_5.keys,key_resp_5.rt,key_resp_5.duration,routine_14.started,image_6.started,routine_14.stopped,routine_16.started,text_4.started,text_4.stopped,routine_16.stopped,routine_17.started,image_7.started,key_resp_3.started,image_7.stopped,routine_17.stopped,key_resp_3.keys,key_resp_3.rt,key_resp_3.duration,routine_20.started,text_8.started,key_resp_7.started,routine_20.stopped,key_resp_7.keys,key_resp_7.rt,key_resp_7.duration,routine_18.started,text_5.started,key_resp_4.started,routine_18.stopped,key_resp_4.keys,key_resp_4.rt,key_resp_4.duration,trial.started,image_3.started,trial.stopped,routine.started,text_3.started,text_3.stopped,routine.stopped,routine_1.started,image_2.started,key_resp.started,image_2.stopped,routine_1.stopped,key_resp.keys,key_resp.corr,key_resp.rt,key_resp.duration,routine_22.started,text_10.started,key_resp_9.started,routine_22.stopped,key_resp_9.keys,key_resp_9.rt,key_resp_9.duration,routine_19.started,text_7.started,key_resp_6.started,routine_19.stopped,key_resp_6.keys,key_resp_6.rt,key_resp_6.duration,routine_23.started,image_8.started,routine_23.stopped,routine_24.started,text_11.started,text_11.stopped,routine_24.stopped,routine_25.started,image_9.started,key_resp_10.started,routine_25.stopped,key_resp_10.keys,key_resp_10.rt,key_resp_10.duration,image_9.stopped,routine_26.started,text_12.started,key_resp_11.started,text_12.stopped,routine_26.stopped,key_resp_11.keys,key_resp_11.rt,key_resp_11.duration,routine_27.started,text_13.started,key_resp_12.started,routine_27.stopped,key_resp_12.keys,key_resp_12.rt,key_resp_12.duration,routine_10.started,image_4.started,routine_10.stopped,routine_11.started,text.started,text.stopped,routine_11.stopped,routine_12.started,image_5.started,key_resp_2.started,routine_12.stopped,key_resp_2.keys,key_resp_2.corr,key_resp_2.rt,key_resp_2.duration,image_5.stopped,participant,session,date,expName,psychopyVersion,frameRate,expStart,
,,,,,,,,,,,,,,,,,,,,,0.003779606769455768,0.008757786668979861,0.008757786668979861,8.737813555023763,space,8.720513718839811,None,,,,,,,,,,,,,,,,,,,,,,,,,,,,,,,,,,,,,,,,,,,,,,,,,,,,,,,,,,,,,,,,,,,,,,,,,,,,,,,,,,,,,,,,,,,,,,,,,,,,,,,,,,,,,,,,,1,001,2023-11-09_17h49.16.003,untitled,2023.2.2,59.909527023986385,2023-11-09 17h49.36.417324 +0800,
,,,,,,,,,,,,,,,,,,,,,,,,,,,,8.737841498694138,8.753259794406688,8.753259794406688,46.487505573710564,space,37.718651708890604,None,,,,,,,,,,,,,,,,,,,,,,,,,,,,,,,,,,,,,,,,,,,,,,,,,,,,,,,,,,,,,,,,,,,,,,,,,,,,,,,,,,,,,,,,,,,,,,,,,,,,,,,,,,1,001,2023-11-09_17h49.16.003,untitled,2023.2.2,59.909527023986385,2023-11-09 17h49.36.417324 +0800,
1,test/blank.PNG,space,0,0,0,2,,,,,,,,,,,,,46.67248786403388,,,,,,,,,,,,,,,,46.500099154959344,46.67248786403388,46.990391884436974,46.99044026003838,47.50298636709448,47.912268292888086,47.78697007683604,47.78699020829748,49.108014905694574,49.108014905694574,49.919529140140185,52.05514217619293,space,2.941084526898635,None,,,,,,,,,,,,,,,,,,,,,,,,,,,,,,,,,,,,,,,,,,,,,,,,,,,,,,,,,,,,,,,,,,,,,,,,,,,,,,,,,,,,,,,,,,,1,001,2023-11-09_17h49.16.003,untitled,2023.2.2,59.909527023986385,2023-11-09 17h49.36.417324 +0800,
8,test/rightstar.PNG,space,0,1,1,1,,,,,,,,,,,,,52.15911756893672,,,,,,,,,,,,,,,,52.05715381998988,52.15911756893672,52.5570306274646,52.55704114389965,53.06966657492325,53.58516449507289,53.353886754219445,53.353909289437524,54.68225552894063,54.68225552894063,55.48613453104508,55.637204923854995,right,0.9422019732437548,None,,,,,,,,,,,,,,,,,,,,,,,,,,,,,,,,,,,,,,,,,,,,,,,,,,,,,,,,,,,,,,,,,,,,,,,,,,,,,,,,,,,,,,,,,,,1,001,2023-11-09_17h49.16.003,untitled,2023.2.2,59.909527023986385,2023-11-09 17h49.36.417324 +0800,
2,test/leftstar.PNG,left,0,2,2,4,,,,,,,,,,,,,55.741448936397774,,,,,,,,,,,,,,,,55.637861750343404,55.741448936397774,56.14022794823751,56.140238464672564,56.65298798963016,57.16702532718131,56.937104206453796,56.93713695763739,58.26561059623975,58.26561059623975,59.069542180519704,61.820636190238076,space,3.5503244470458526,None,,,,,,,,,,,,,,,,,,,,,,,,,,,,,,,,,,,,,,,,,,,,,,,,,,,,,,,,,,,,,,,,,,,,,,,,,,,,,,,,,,,,,,,,,,,1,001,2023-11-09_17h49.16.003,untitled,2023.2.2,59.909527023986385,2023-11-09 17h49.36.417324 +0800,
9,test/rightstar.PNG,space,0,3,3,3,,,,,,,,,,,,,61.91720681080392,,,,,,,,,,,,,,,,61.82136482895464,61.91720681080392,62.32359972164494,62.323610538549644,62.836265115121876,63.33927672166061,63.1203314539963,63.12035098451861,64.44892858559353,64.44892858559353,,65.19184261163343,right,0.7363000897803431,None,,,,,,,,,,,,,,,,,,,,,,,,,,,,,,,,,,,,,,,,,,,,,,,,,,,,,,,,,,,,,,,,,,,,,,,,,,,,,,,,,,,,,,,,,,,1,001,2023-11-09_17h49.16.003,untitled,2023.2.2,59.909527023986385,2023-11-09 17h49.36.417324 +0800,
1,test/leftstar.PNG,left,0,4,4,0,,,,,,,,,,,,,65.29375257652657,,,,,,,,,,,,,,,,65.19266439591792,65.29375257652657,65.70699769599929,65.70700971478226,66.2030104647543,66.70075093355894,66.4866023621716,66.48661678471115,67.81559821689336,67.81559821689336,68.61952168849473,70.45357745084016,space,2.6338276458449172,None,,,,,,,,,,,,,,,,,,,,,,,,,,,,,,,,,,,,,,,,,,,,,,,,,,,,,,,,,,,,,,,,,,,,,,,,,,,,,,,,,,,,,,,,,,,1,001,2023-11-09_17h49.16.003,untitled,2023.2.2,59.909527023986385,2023-11-09 17h49.36.417324 +0800,
8,test/rightstar.PNG,space,0,5,5,5,,,,,,,,,,,,,70.54847024930558,,,,,,,,,,,,,,,,70.4539791786604,70.54847024930558,70.95700190257332,70.9570133204171,71.4528737510982,71.95545117910268,71.73685445614404,71.73687008056186,73.06570939063567,73.06570939063567,,73.47497118496784,right,0.3993126458028655,None,,,,,,,,,,,,,,,,,,,,,,,,,,,,,,,,,,,,,,,,,,,,,,,,,,,,,,,,,,,,,,,,,,,,,,,,,,,,,,,,,,,,,,,,,,,1,001,2023-11-09_17h49.16.003,untitled,2023.2.2,59.909527023986385,2023-11-09 17h49.36.417324 +0800,
,,,,,,,,,,,,,,,,,,,,,,,,,,,,,,,,,,,,,,,,,,,,,,,,,,73.47551142926164,73.48642027760985,73.48642027760985,81.32064189915997,space,7.818415720087387,None,,,,,,,,,,,,,,,,,,,,,,,,,,,,,,,,,,,,,,,,,,,,,,,,,,,,,,,,,,,,,,,,,,,,,,,,,,,,,,,,,,,,1,001,2023-11-09_17h49.16.003,untitled,2023.2.2,59.909527023986385,2023-11-09 17h49.36.417324 +0800,
,,,,,,,,,,,,,,,,,,,,,,,,,,,,,,,,,,,,,,,,,,,,,,,,,,,,,,,,,81.32067795550887,81.3368657538,81.3368657538,83.1208356419412,space,1.7672556671566326,None,,,,,,,,,,,,,,,,,,,,,,,,,,,,,,,,,,,,,,,,,,,,,,,,,,,,,,,,,,,,,,,,,,,,,,,,,,,,,1,001,2023-11-09_17h49.16.003,untitled,2023.2.2,59.909527023986385,2023-11-09 17h49.36.417324 +0800,
1,condition_1/leftstar.PNG,left,,,,,0,0,0,0,,,,,,,,,83.29475914959897,,,,,,,,,,,,,,,,,,,,,,,,,,,,,,,,,,,,,,,,,,,,,83.14696417561362,83.29475914959897,83.62364563339582,83.62365765217879,84.13639485788389,84.6464371519811,84.4204377601315,84.42046119675825,85.74905322037279,85.74905322037279,86.55288204405844,87.28725912856612,space,0,1.5319417185176576,None,,,,,,,,,,,,,,,,,,,,,,,,,,,,,,,,,,,,,,,,,,,,,,,,,,,,,,,,,,,,,1,001,2023-11-09_17h49.16.003,untitled,2023.2.2,59.909527023986385,2023-11-09 17h49.36.417324 +0800,
1,condition_1/rightstar.PNG,right,,,,,0,1,1,12,,,,,,,,,87.38952064286065,,,,,,,,,,,,,,,,,,,,,,,,,,,,,,,,,,,,,,,,,,,,,87.28828312887379,87.38952064286065,87.79058743003566,87.79062168356705,88.3030274713322,88.79783355427861,88.58682308712054,88.58683600731223,89.91619723303575,89.91619723303575,90.71957054484744,90.75370268655854,space,0,0.8289564932076132,None,,,,,,,,,,,,,,,,,,,,,,,,,,,,,,,,,,,,,,,,,,,,,,,,,,,,,,,,,,,,,1,001,2023-11-09_17h49.16.003,untitled,2023.2.2,59.909527023986385,2023-11-09 17h49.36.417324 +0800,
8,condition_1/blank.PNG,space,,,,,0,2,2,10,,,,,,,,,90.85155871596129,,,,,,,,,,,,,,,,,,,,,,,,,,,,,,,,,,,,,,,,,,,,,90.75426095902674,90.85155871596129,91.25763883797595,91.25765356098509,91.75311466760252,92.15119178251769,92.03676575752581,92.03677627396092,93.37474505156655,93.37474505156655,94.16986085854973,95.45434274684476,space,1,2.0658713437360348,None,,,,,,,,,,,,,,,,,,,,,,,,,,,,,,,,,,,,,,,,,,,,,,,,,,,,,,,,,,,,,1,001,2023-11-09_17h49.16.003,untitled,2023.2.2,59.909527023986385,2023-11-09 17h49.36.417324 +0800,
2,condition_1/leftstar.PNG,left,,,,,0,3,3,22,,,,,,,,,95.55383723683371,,,,,,,,,,,,,,,,,,,,,,,,,,,,,,,,,,,,,,,,,,,,,95.45530034337662,95.55383723683371,95.95712449415947,95.95713621247285,96.46960389697017,96.97989558081366,96.75361825460828,96.75363508090442,98.08230342379068,98.08230342379068,98.88629780621153,99.0885582989095,space,0,0.9901019312982271,None,,,,,,,,,,,,,,,,,,,,,,,,,,,,,,,,,,,,,,,,,,,,,,,,,,,,,,,,,,,,,1,001,2023-11-09_17h49.16.003,untitled,2023.2.2,59.909527023986385,2023-11-09 17h49.36.417324 +0800,
1,condition_1/blank.PNG,space,,,,,0,4,4,8,,,,,,,,,99.1860922249291,,,,,,,,,,,,,,,,,,,,,,,,,,,,,,,,,,,,,,,,,,,,,99.09021268438312,99.1860922249291,99.59043322905035,99.59044554830285,100.10317974931218,100.46338537866978,100.3874116469218,100.38743989106172,101.70813016582315,101.70813016582315,102.50317295869985,103.5706908757005,space,1,1.8529808384543571,None,,,,,,,,,,,,,,,,,,,,,,,,,,,,,,,,,,,,,,,,,,,,,,,,,,,,,,,,,,,,,1,001,2023-11-09_17h49.16.003,untitled,2023.2.2,59.909527023986385,2023-11-09 17h49.36.417324 +0800,
2,condition_1/leftstar.PNG,left,,,,,0,5,5,1,,,,,,,,,103.67469631540166,,,,,,,,,,,,,,,,,,,,,,,,,,,,,,,,,,,,,,,,,,,,,103.5715066505935,103.67469631540166,104.0737670831976,104.07377850104143,104.58633031701942,105.08889933187584,104.87041889064227,104.87044022398203,106.19914492368673,106.19914492368673,107.00291816050122,107.1044738717668,space,0,0.8980347487052427,None,,,,,,,,,,,,,,,,,,,,,,,,,,,,,,,,,,,,,,,,,,,,,,,,,,,,,,,,,,,,,1,001,2023-11-09_17h49.16.003,untitled,2023.2.2,59.909527023986385,2023-11-09 17h49.36.417324 +0800,
2,condition_1/leftstar.PNG,left,,,,,0,6,6,17,,,,,,,,,107.20793666341757,,,,,,,,,,,,,,,,,,,,,,,,,,,,,,,,,,,,,,,,,,,,,107.10559943079039,107.20793666341757,107.60705851104103,107.60707083029354,108.11973081531818,108.6199747966121,108.40378543587917,108.40380737015806,109.73228611674324,109.73228611674324,,110.17527952684452,space,0,0.4283371052280245,None,,,,,,,,,,,,,,,,,,,,,,,,,,,,,,,,,,,,,,,,,,,,,,,,,,,,,,,,,,,,,1,001,2023-11-09_17h49.16.003,untitled,2023.2.2,59.909527023986385,2023-11-09 17h49.36.417324 +0800,
8,condition_1/leftstar.PNG,space,,,,,0,7,7,18,,,,,,,,,110.27201089863235,,,,,,,,,,,,,,,,,,,,,,,,,,,,,,,,,,,,,,,,,,,,,110.17641500136409,110.27201089863235,110.6904322074538,110.6904445267063,111.1863244879097,111.69015787873286,111.47031060140785,111.47032983146056,112.79904444666124,112.79904444666124,,113.4258978932275,left,0,0.6090950938126412,None,,,,,,,,,,,,,,,,,,,,,,,,,,,,,,,,,,,,,,,,,,,,,,,,,,,,,,,,,,,,,1,001,2023-11-09_17h49.16.003,untitled,2023.2.2,59.909527023986385,2023-11-09 17h49.36.417324 +0800,
8,condition_1/rightstar.PNG,space,,,,,0,8,8,23,,,,,,,,,113.53443020752832,,,,,,,,,,,,,,,,,,,,,,,,,,,,,,,,,,,,,,,,,,,,,113.42755017541413,113.53443020752832,113.94043611355823,113.94044783187161,114.4364416710435,114.94570995551845,114.7204941883175,114.7205191272921,116.04903933867848,116.04903933867848,,116.52477011072904,right,0,0.47187334366145706,None,,,,,,,,,,,,,,,,,,,,,,,,,,,,,,,,,,,,,,,,,,,,,,,,,,,,,,,,,,,,,1,001,2023-11-09_17h49.16.003,untitled,2023.2.2,59.909527023986385,2023-11-09 17h49.36.417324 +0800,
1,condition_1/rightstar.PNG,right,,,,,0,9,9,21,,,,,,,,,116.62276405566615,,,,,,,,,,,,,,,,,,,,,,,,,,,,,,,,,,,,,,,,,,,,,116.5253491155978,116.62276405566615,117.04034194639382,117.0403533642376,117.53640519403723,118.03422498680936,117.82032700704661,117.82034593662974,119.14929251434137,119.14929251434137,,119.77559520017883,right,1,0.6199375383849883,None,,,,,,,,,,,,,,,,,,,,,,,,,,,,,,,,,,,,,,,,,,,,,,,,,,,,,,,,,,,,,1,001,2023-11-09_17h49.16.003,untitled,2023.2.2,59.909527023986385,2023-11-09 17h49.36.417324 +0800,
1,condition_1/leftstar.PNG,left,,,,,0,10,10,16,,,,,,,,,119.87270035611652,,,,,,,,,,,,,,,,,,,,,,,,,,,,,,,,,,,,,,,,,,,,,119.7767721394996,119.87270035611652,120.29037650039481,120.29038851917772,120.78643433958587,121.28875306328729,121.07044358924122,121.07046552352011,122.39897011048868,122.39897011048868,,122.85783792911559,space,0,0.45000426666797466,None,,,,,,,,,,,,,,,,,,,,,,,,,,,,,,,,,,,,,,,,,,,,,,,,,,,,,,,,,,,,,1,001,2023-11-09_17h49.16.003,untitled,2023.2.2,59.909527023986385,2023-11-09 17h49.36.417324 +0800,
8,condition_1/rightstar.PNG,space,,,,,0,11,11,14,,,,,,,,,122.95238488710152,,,,,,,,,,,,,,,,,,,,,,,,,,,,,,,,,,,,,,,,,,,,,122.8583937978272,122.95238488710152,123.37376101371223,123.3737727320256,123.86980292801587,124.3802646776382,124.15364451564903,124.15366104147557,125.48253430461125,125.48253430461125,,125.87456507029185,right,0,0.3899304833594215,None,,,,,,,,,,,,,,,,,,,,,,,,,,,,,,,,,,,,,,,,,,,,,,,,,,,,,,,,,,,,,1,001,2023-11-09_17h49.16.003,untitled,2023.2.2,59.909527023986385,2023-11-09 17h49.36.417324 +0800,
9,condition_1/rightstar.PNG,space,,,,,0,12,12,15,,,,,,,,,125.96902278881436,,,,,,,,,,,,,,,,,,,,,,,,,,,,,,,,,,,,,,,,,,,,,125.87504762442745,125.96902278881436,126.39044458680024,126.39045660558321,126.88642460437171,127.38662441663831,127.1703301920241,127.17034852066809,128.49905562412937,128.49905562412937,,128.99179748110345,right,0,0.4773761434369703,None,,,,,,,,,,,,,,,,,,,,,,,,,,,,,,,,,,,,,,,,,,,,,,,,,,,,,,,,,,,,,1,001,2023-11-09_17h49.16.003,untitled,2023.2.2,59.909527023986385,2023-11-09 17h49.36.417324 +0800,
8,condition_1/leftstar.PNG,space,,,,,0,13,13,2,,,,,,,,,129.08905437417593,,,,,,,,,,,,,,,,,,,,,,,,,,,,,,,,,,,,,,,,,,,,,128.99276679594868,129.08905437417593,129.5071307439266,129.50714276270952,130.00309573801934,130.50518550390547,130.2869754852884,130.28699411440198,131.6158382319889,131.6158382319889,,131.9577936399004,left,0,0.3286578264512059,None,,,,,,,,,,,,,,,,,,,,,,,,,,,,,,,,,,,,,,,,,,,,,,,,,,,,,,,,,,,,,1,001,2023-11-09_17h49.16.003,untitled,2023.2.2,59.909527023986385,2023-11-09 17h49.36.417324 +0800,
9,condition_1/leftstar.PNG,space,,,,,0,14,14,19,,,,,,,,,132.05277477642056,,,,,,,,,,,,,,,,,,,,,,,,,,,,,,,,,,,,,,,,,,,,,131.95833839123782,132.05277477642056,132.47374496863694,132.47375668695037,132.96977636650553,133.47619019002894,133.25385953167608,133.25389078051177,134.58258165861605,134.58258165861605,,135.0078948380529,left,0,0.4186379473841271,None,,,,,,,,,,,,,,,,,,,,,,,,,,,,,,,,,,,,,,,,,,,,,,,,,,,,,,,,,,,,,1,001,2023-11-09_17h49.16.003,untitled,2023.2.2,59.909527023986385,2023-11-09 17h49.36.417324 +0800,
1,condition_1/rightstar.PNG,right,,,,,0,15,15,4,,,,,,,,,135.10285854733775,,,,,,,,,,,,,,,,,,,,,,,,,,,,,,,,,,,,,,,,,,,,,135.00839211519758,135.10285854733775,135.52388402595574,135.5239086644608,136.01976699185485,136.52032195915774,136.30389312417446,136.30394991292388,137.63235234023728,137.63235234023728,138.43657267577765,138.5870817914236,space,0,0.9515772248870462,None,,,,,,,,,,,,,,,,,,,,,,,,,,,,,,,,,,,,,,,,,,,,,,,,,,,,,,,,,,,,,1,001,2023-11-09_17h49.16.003,untitled,2023.2.2,59.909527023986385,2023-11-09 17h49.36.417324 +0800,
2,condition_1/blank.PNG,space,,,,,0,16,16,9,,,,,,,,,138.68340752928674,,,,,,,,,,,,,,,,,,,,,,,,,,,,,,,,,,,,,,,,,,,,,138.5876097164649,138.68340752928674,139.09044554830285,139.0904569661467,139.6032058901651,140.01616346025565,139.88721814451623,139.88725420086507,141.20815300151077,141.20815300151077,142.00303924973946,142.8711436232544,space,1,1.6562847417944795,None,,,,,,,,,,,,,,,,,,,,,,,,,,,,,,,,,,,,,,,,,,,,,,,,,,,,,,,,,,,,,1,001,2023-11-09_17h49.16.003,untitled,2023.2.2,59.909527023986385,2023-11-09 17h49.36.417324 +0800,
9,condition_1/leftstar.PNG,space,,,,,0,17,17,24,,,,,,,,,142.9807798627695,,,,,,,,,,,,,,,,,,,,,,,,,,,,,,,,,,,,,,,,,,,,,142.87227489119994,142.9807798627695,143.37383162406206,143.37384304190584,143.8864014682145,144.3878226892988,144.1701393938447,144.17015081168847,145.49902497623282,145.49902497623282,,145.8580353376256,left,0,0.35717990074886075,None,,,,,,,,,,,,,,,,,,,,,,,,,,,,,,,,,,,,,,,,,,,,,,,,,,,,,,,,,,,,,1,001,2023-11-09_17h49.16.003,untitled,2023.2.2,59.909527023986385,2023-11-09 17h49.36.417324 +0800,
9,condition_1/rightstar.PNG,space,,,,,0,18,18,7,,,,,,,,,145.95644903855742,,,,,,,,,,,,,,,,,,,,,,,,,,,,,,,,,,,,,,,,,,,,,145.85860953498127,145.95644903855742,146.37366185875283,146.37367237518794,146.86972180123092,147.37405427201628,147.15373075041674,147.15374967999986,148.48251898066297,148.48251898066297,,148.9080373808187,right,0,0.4216285210526962,None,,,,,,,,,,,,,,,,,,,,,,,,,,,,,,,,,,,,,,,,,,,,,,,,,,,,,,,,,,,,,1,001,2023-11-09_17h49.16.003,untitled,2023.2.2,59.909527023986385,2023-11-09 17h49.36.417324 +0800,
8,condition_1/rightstar.PNG,space,,,,,0,19,19,6,,,,,,,,,149.00598895954596,,,,,,,,,,,,,,,,,,,,,,,,,,,,,,,,,,,,,,,,,,,,,148.90863291151408,149.00598895954596,149.42387182689106,149.4238829442653,149.91978363786922,150.42669323618952,150.2041246059341,150.20415315054368,151.53250359662076,151.53250359662076,,151.92451182708334,right,0,0.3805855791430872,None,,,,,,,,,,,,,,,,,,,,,,,,,,,,,,,,,,,,,,,,,,,,,,,,,,,,,,,,,,,,,1,001,2023-11-09_17h49.16.003,untitled,2023.2.2,59.909527023986385,2023-11-09 17h49.36.417324 +0800,
2,condition_1/rightstar.PNG,left,,,,,0,20,20,5,,,,,,,,,152.02623129426667,,,,,,,,,,,,,,,,,,,,,,,,,,,,,,,,,,,,,,,,,,,,,151.92508061598664,152.02623129426667,152.4404829868118,152.44050672390813,152.93659851616104,153.44493203979175,153.22025892064113,153.22027214130242,154.5492908317118,154.5492908317118,,155.32504317747777,space,0,0.7633453561225565,None,,,,,,,,,,,,,,,,,,,,,,,,,,,,,,,,,,,,,,,,,,,,,,,,,,,,,,,,,,,,,1,001,2023-11-09_17h49.16.003,untitled,2023.2.2,59.909527023986385,2023-11-09 17h49.36.417324 +0800,
9,condition_1/leftstar.PNG,space,,,,,0,21,21,3,,,,,,,,,155.43433447792205,,,,,,,,,,,,,,,,,,,,,,,,,,,,,,,,,,,,,,,,,,,,,155.3258664641101,155.43433447792205,155.84048430887788,155.8404984309479,156.33649347199804,156.83056761106252,156.62015057131282,156.62016198915666,157.9490346513531,157.9490346513531,,158.30931659998242,left,0,0.35585933697183236,None,,,,,,,,,,,,,,,,,,,,,,,,,,,,,,,,,,,,,,,,,,,,,,,,,,,,,,,,,,,,,1,001,2023-11-09_17h49.16.003,untitled,2023.2.2,59.909527023986385,2023-11-09 17h49.36.417324 +0800,
2,condition_1/blank.PNG,space,,,,,0,22,22,20,,,,,,,,,158.41499896037527,,,,,,,,,,,,,,,,,,,,,,,,,,,,,,,,,,,,,,,,,,,,,158.3107312107361,158.41499896037527,158.82385121467826,158.8238626325221,159.31979036838771,159.71946928660105,159.60349764612135,159.60350966490427,160.9249075455121,160.9249075455121,161.73635808040802,161.80403674863072,space,1,0.875784976761679,None,,,,,,,,,,,,,,,,,,,,,,,,,,,,,,,,,,,,,,,,,,,,,,,,,,,,,,,,,,,,,1,001,2023-11-09_17h49.16.003,untitled,2023.2.2,59.909527023986385,2023-11-09 17h49.36.417324 +0800,
9,condition_1/blank.PNG,space,,,,,0,23,23,11,,,,,,,,,161.90629946480357,,,,,,,,,,,,,,,,,,,,,,,,,,,,,,,,,,,,,,,,,,,,,161.8047668896952,161.90629946480357,162.30720910639144,162.3072211251744,162.81986939188562,163.1736852352857,163.10386091383612,163.10388435046286,164.42489702907704,164.42489702907704,165.23631992077213,165.3540574209374,space,1,0.9275014993431796,None,,,,,,,,,,,,,,,,,,,,,,,,,,,,,,,,,,,,,,,,,,,,,,,,,,,,,,,,,,,,,1,001,2023-11-09_17h49.16.003,untitled,2023.2.2,59.909527023986385,2023-11-09 17h49.36.417324 +0800,
2,condition_1/rightstar.PNG,right,,,,,0,24,24,13,,,,,,,,,165.45243987303354,,,,,,,,,,,,,,,,,,,,,,,,,,,,,,,,,,,,,,,,,,,,,165.35473528029604,165.45243987303354,165.8571726894791,165.8571853092012,166.3698104397552,166.86792349083146,166.653674863076,166.6536838771632,167.98333715931255,167.98333715931255,168.78636583252302,168.82114668804405,space,0,0.833815687155834,None,,,,,,,,,,,,,,,,,,,,,,,,,,,,,,,,,,,,,,,,,,,,,,,,,,,,,,,,,,,,,1,001,2023-11-09_17h49.16.003,untitled,2023.2.2,59.909527023986385,2023-11-09 17h49.36.417324 +0800,
9,condition_1/leftstar.PNG,space,,,,,1,0,25,19,,,,,,,,,168.96950203778465,,,,,,,,,,,,,,,,,,,,,,,,,,,,,,,,,,,,,,,,,,,,,168.82255739269328,168.96950203778465,169.32353271693,169.3235456371217,169.83650008232866,170.34253381184112,170.12019203611402,170.12020255254907,171.44925970306394,171.44925970306394,,171.7757147870692,left,0,0.3107949102858356,None,,,,,,,,,,,,,,,,,,,,,,,,,,,,,,,,,,,,,,,,,,,,,,,,,,,,,,,,,,,,,1,001,2023-11-09_17h49.16.003,untitled,2023.2.2,59.909527023986385,2023-11-09 17h49.36.417324 +0800,
2,condition_1/leftstar.PNG,left,,,,,1,1,26,1,,,,,,,,,171.87689521183705,,,,,,,,,,,,,,,,,,,,,,,,,,,,,,,,,,,,,,,,,,,,,171.77629018630313,171.87689521183705,172.2902866599922,172.2902995801839,172.7866236354174,173.29033473512402,173.071244040186,173.07128219982184,174.3992083828607,174.3992083828607,,174.90791058265853,left,1,0.4980956238409817,None,,,,,,,,,,,,,,,,,,,,,,,,,,,,,,,,,,,,,,,,,,,,,,,,,,,,,,,,,,,,,1,001,2023-11-09_17h49.16.003,untitled,2023.2.2,59.909527023986385,2023-11-09 17h49.36.417324 +0800,
2,condition_1/rightstar.PNG,left,,,,,1,2,27,5,,,,,,,,,175.00655083764906,,,,,,,,,,,,,,,,,,,,,,,,,,,,,,,,,,,,,,,,,,,,,174.90849229175353,175.00655083764906,175.42400193021655,175.424012146182,175.91979415430433,176.4147892326127,176.2039058640844,176.20392900024154,177.5326352022941,177.5326352022941,,178.0586910223297,space,0,0.5240057161331606,None,,,,,,,,,,,,,,,,,,,,,,,,,,,,,,,,,,,,,,,,,,,,,,,,,,,,,,,,,,,,,1,001,2023-11-09_17h49.16.003,untitled,2023.2.2,59.909527023986385,2023-11-09 17h49.36.417324 +0800,
2,condition_1/blank.PNG,space,,,,,1,3,28,9,,,,,,,,,178.15437946422668,,,,,,,,,,,,,,,,,,,,,,,,,,,,,,,,,,,,,,,,,,,,,178.0591447313862,178.15437946422668,178.57362225686302,178.57364749630722,179.06965846224477,179.46276490899976,179.35329633150684,179.35331586202915,180.67468700084487,180.67468700084487,181.4696047983789,181.57041985214494,space,1,0.885805036110412,None,,,,,,,,,,,,,,,,,,,,,,,,,,,,,,,,,,,,,,,,,,,,,,,,,,,,,,,,,,,,,1,001,2023-11-09_17h49.16.003,untitled,2023.2.2,59.909527023986385,2023-11-09 17h49.36.417324 +0800,
9,condition_1/blank.PNG,space,,,,,1,4,29,11,,,,,,,,,181.6749018365902,,,,,,,,,,,,,,,,,,,,,,,,,,,,,,,,,,,,,,,,,,,,,181.57086695087082,181.6749018365902,182.07410180630285,182.07412854809496,182.58627352826994,182.9319235100615,182.8700177637612,182.87004450555327,184.19134563495828,184.19134563495828,185.00290854547484,185.57041444369258,space,1,1.3772617847171205,None,,,,,,,,,,,,,,,,,,,,,,,,,,,,,,,,,,,,,,,,,,,,,,,,,,,,,,,,,,,,,1,001,2023-11-09_17h49.16.003,untitled,2023.2.2,59.909527023986385,2023-11-09 17h49.36.417324 +0800,
1,condition_1/rightstar.PNG,right,,,,,1,5,30,4,,,,,,,,,185.66846427597045,,,,,,,,,,,,,,,,,,,,,,,,,,,,,,,,,,,,,,,,,,,,,185.5708588381923,185.66846427597045,186.0740753649804,186.07408618188504,186.569844452911,187.10216326074385,186.85384649129657,186.85386091383612,188.18292257139456,188.18292257139456,,188.54142453826836,space,0,0.353460387894188,None,,,,,,,,,,,,,,,,,,,,,,,,,,,,,,,,,,,,,,,,,,,,,,,,,,,,,,,,,,,,,1,001,2023-11-09_17h49.16.003,untitled,2023.2.2,59.909527023986385,2023-11-09 17h49.36.417324 +0800,
8,condition_1/rightstar.PNG,space,,,,,1,6,31,6,,,,,,,,,188.63669773121433,,,,,,,,,,,,,,,,,,,,,,,,,,,,,,,,,,,,,,,,,,,,,188.54190739287355,188.63669773121433,189.05725988574943,189.05727250547153,189.5530112459752,190.05697173542808,189.8368909932442,189.8369039134359,191.16617079171328,191.16617079171328,,191.52489961311534,right,0,0.35414065100940206,None,,,,,,,,,,,,,,,,,,,,,,,,,,,,,,,,,,,,,,,,,,,,,,,,,,,,,,,,,,,,,1,001,2023-11-09_17h49.16.003,untitled,2023.2.2,59.909527023986385,2023-11-09 17h49.36.417324 +0800,
1,condition_1/blank.PNG,space,,,,,1,7,32,8,,,,,,,,,191.61958959461845,,,,,,,,,,,,,,,,,,,,,,,,,,,,,,,,,,,,,,,,,,,,,191.5253440076151,191.61958959461845,192.04039392763008,192.04040654735218,192.5362606681722,192.9135359740202,192.82020711968664,192.82021733565216,194.14138475609678,194.14138475609678,,194.87608754962258,space,1,0.7320595626846398,None,,,,,,,,,,,,,,,,,,,,,,,,,,,,,,,,,,,,,,,,,,,,,,,,,,,,,,,,,,,,,1,001,2023-11-09_17h49.16.003,untitled,2023.2.2,59.909527023986385,2023-11-09 17h49.36.417324 +0800,
9,condition_1/leftstar.PNG,space,,,,,1,8,33,3,,,,,,,,,194.99369374458405,,,,,,,,,,,,,,,,,,,,,,,,,,,,,,,,,,,,,,,,,,,,,194.87771519330403,194.99369374458405,195.39077720661845,195.39081176061944,195.88669833215346,196.3883791589496,196.17085991988273,196.1708878635531,197.49929239415354,197.49929239415354,,197.80867179227693,left,0,0.2931405200046129,None,,,,,,,,,,,,,,,,,,,,,,,,,,,,,,,,,,,,,,,,,,,,,,,,,,,,,,,,,,,,,1,001,2023-11-09_17h49.16.003,untitled,2023.2.2,59.909527023986385,2023-11-09 17h49.36.417324 +0800,
1,condition_1/leftstar.PNG,left,,,,,1,9,34,16,,,,,,,,,197.9150317115588,,,,,,,,,,,,,,,,,,,,,,,,,,,,,,,,,,,,,,,,,,,,,197.80963119162624,197.9150317115588,198.32387224754842,198.32388456680093,198.81989613367767,199.31593324046815,199.10348562733833,199.10349524236477,200.43249500319092,200.43249500319092,,200.82492389105693,space,0,0.38399080082353976,None,,,,,,,,,,,,,,,,,,,,,,,,,,,,,,,,,,,,,,,,,,,,,,,,,,,,,,,,,,,,,1,001,2023-11-09_17h49.16.003,untitled,2023.2.2,59.909527023986385,2023-11-09 17h49.36.417324 +0800,
2,condition_1/leftstar.PNG,left,,,,,1,10,35,22,,,,,,,,,200.92265222089082,,,,,,,,,,,,,,,,,,,,,,,,,,,,,,,,,,,,,,,,,,,,,200.82573756266294,200.92265222089082,201.34052937931398,201.34054049668822,201.8366599321419,202.32737271808384,202.1202734633685,202.120285782621,203.4490881349373,203.4490881349373,204.25309063003664,204.35439454779925,space,0,0.8962643819761524,None,,,,,,,,,,,,,,,,,,,,,,,,,,,,,,,,,,,,,,,,,,,,,,,,,,,,,,,,,,,,,1,001,2023-11-09_17h49.16.003,untitled,2023.2.2,59.909527023986385,2023-11-09 17h49.36.417324 +0800,
1,condition_1/rightstar.PNG,right,,,,,1,11,36,21,,,,,,,,,204.45815480432822,,,,,,,,,,,,,,,,,,,,,,,,,,,,,,,,,,,,,,,,,,,,,204.35526080158064,204.45815480432822,204.85721745944562,204.85723037963731,205.37005321917087,205.87539406584614,205.65445878819418,205.6544957459518,206.98247391022693,206.98247391022693,,207.4247936675436,space,0,0.4257945316941232,None,,,,,,,,,,,,,,,,,,,,,,,,,,,,,,,,,,,,,,,,,,,,,,,,,,,,,,,,,,,,,1,001,2023-11-09_17h49.16.003,untitled,2023.2.2,59.909527023986385,2023-11-09 17h49.36.417324 +0800,
2,condition_1/blank.PNG,space,,,,,1,12,37,20,,,,,,,,,207.52406370676096,,,,,,,,,,,,,,,,,,,,,,,,,,,,,,,,,,,,,,,,,,,,,207.4254174423789,207.52406370676096,207.94058664881476,207.94059896806726,208.43648433772302,208.8426567038968,208.7202802539809,208.72029377511177,210.04160632236056,210.04160632236056,,210.54117484805255,space,1,0.487307564261414,None,,,,,,,,,,,,,,,,,,,,,,,,,,,,,,,,,,,,,,,,,,,,,,,,,,,,,,,,,,,,,1,001,2023-11-09_17h49.16.003,untitled,2023.2.2,59.909527023986385,2023-11-09 17h49.36.417324 +0800,
8,condition_1/blank.PNG,space,,,,,1,13,38,10,,,,,,,,,210.63287906340025,,,,,,,,,,,,,,,,,,,,,,,,,,,,,,,,,,,,,,,,,,,,,210.54166401251877,210.63287906340025,211.05738668390956,211.05739720034472,211.5533282413756,211.9054737744146,211.8372022797227,211.83722361306246,213.1584180757688,213.1584180757688,213.96959848851787,214.07040242490967,space,1,0.9059235773667069,None,,,,,,,,,,,,,,,,,,,,,,,,,,,,,,,,,,,,,,,,,,,,,,,,,,,,,,,,,,,,,1,001,2023-11-09_17h49.16.003,untitled,2023.2.2,59.909527023986385,2023-11-09 17h49.36.417324 +0800,
9,condition_1/leftstar.PNG,space,,,,,1,14,39,24,,,,,,,,,214.16828369375656,,,,,,,,,,,,,,,,,,,,,,,,,,,,,,,,,,,,,,,,,,,,,214.0709327537075,214.16828369375656,214.57363217235894,214.57364359020272,215.08630808227093,215.58866736936483,215.37020195161,215.37021306898424,216.69891686728016,216.69891686728016,,217.22520855593115,left,0,0.5177917048763447,None,,,,,,,,,,,,,,,,,,,,,,,,,,,,,,,,,,,,,,,,,,,,,,,,,,,,,,,,,,,,,1,001,2023-11-09_17h49.16.003,untitled,2023.2.2,59.909527023986385,2023-11-09 17h49.36.417324 +0800,
1,condition_1/leftstar.PNG,left,,,,,1,15,40,0,,,,,,,,,217.31802691245872,,,,,,,,,,,,,,,,,,,,,,,,,,,,,,,,,,,,,,,,,,,,,217.22571364528488,217.31802691245872,217.74039609101106,217.74040660744612,218.23635327289486,218.72833974936026,218.5199274426073,218.51993705763363,219.84902004853183,219.84902004853183,,220.14121859642245,space,0,0.2794514266896613,None,,,,,,,,,,,,,,,,,,,,,,,,,,,,,,,,,,,,,,,,,,,,,,,,,,,,,,,,,,,,,1,001,2023-11-09_17h49.16.003,untitled,2023.2.2,59.909527023986385,2023-11-09 17h49.36.417324 +0800,
8,condition_1/leftstar.PNG,space,,,,,1,16,41,18,,,,,,,,,220.23343571333277,,,,,,,,,,,,,,,,,,,,,,,,,,,,,,,,,,,,,,,,,,,,,220.14169273740998,220.23343571333277,220.6571335683406,220.65714468571485,221.15302194269196,221.64284593963447,221.43685391529885,221.43686353032518,222.76617217387326,222.76617217387326,,223.10793197609217,left,0,0.3302025405303084,None,,,,,,,,,,,,,,,,,,,,,,,,,,,,,,,,,,,,,,,,,,,,,,,,,,,,,,,,,,,,,1,001,2023-11-09_17h49.16.003,untitled,2023.2.2,59.909527023986385,2023-11-09 17h49.36.417324 +0800,
8,condition_1/leftstar.PNG,space,,,,,1,17,42,2,,,,,,,,,223.20198376022046,,,,,,,,,,,,,,,,,,,,,,,,,,,,,,,,,,,,,,,,,,,,,223.1084046147319,223.20198376022046,223.62388721093322,223.62389802783792,224.11974283410115,224.61407477606002,224.40342126675563,224.40343298506906,225.7320712809979,225.7320712809979,,226.2581111761461,left,0,0.5240561950215579,None,,,,,,,,,,,,,,,,,,,,,,,,,,,,,,,,,,,,,,,,,,,,,,,,,,,,,,,,,,,,,1,001,2023-11-09_17h49.16.003,untitled,2023.2.2,59.909527023986385,2023-11-09 17h49.36.417324 +0800,
8,condition_1/rightstar.PNG,space,,,,,1,18,43,14,,,,,,,,,226.35268066935004,,,,,,,,,,,,,,,,,,,,,,,,,,,,,,,,,,,,,,,,,,,,,226.25858261290745,226.35268066935004,226.77370734984635,226.7737184672206,227.26971080404456,227.76909784611388,227.55348508649314,227.55349590339785,228.8822366594514,228.8822366594514,,229.1577531366019,right,0,0.26226036049126833,None,,,,,,,,,,,,,,,,,,,,,,,,,,,,,,,,,,,,,,,,,,,,,,,,,,,,,,,,,,,,,1,001,2023-11-09_17h49.16.003,untitled,2023.2.2,59.909527023986385,2023-11-09 17h49.36.417324 +0800,
8,condition_1/rightstar.PNG,space,,,,,1,19,44,23,,,,,,,,,229.24921397159477,,,,,,,,,,,,,,,,,,,,,,,,,,,,,,,,,,,,,,,,,,,,,229.15821856397173,229.24921397159477,229.673969179033,229.6739799959376,230.16970160967554,230.6629485560033,230.45342240854,230.4534332254447,231.78212861059257,231.78212861059257,,232.10838899031404,right,0,0.3142046390098585,None,,,,,,,,,,,,,,,,,,,,,,,,,,,,,,,,,,,,,,,,,,,,,,,,,,,,,,,,,,,,,1,001,2023-11-09_17h49.16.003,untitled,2023.2.2,59.909527023986385,2023-11-09 17h49.36.417324 +0800,
9,condition_1/rightstar.PNG,space,,,,,1,20,45,15,,,,,,,,,232.20888434445345,,,,,,,,,,,,,,,,,,,,,,,,,,,,,,,,,,,,,,,,,,,,,232.1088264740136,232.20888434445345,232.62384424378416,232.62385506068887,233.11978099373704,233.6141525976796,233.40370190533764,233.4037139241206,234.7327464361304,234.7327464361304,,235.042110810775,right,0,0.3078599234884223,None,,,,,,,,,,,,,,,,,,,,,,,,,,,,,,,,,,,,,,,,,,,,,,,,,,,,,,,,,,,,,1,001,2023-11-09_17h49.16.003,untitled,2023.2.2,59.909527023986385,2023-11-09 17h49.36.417324 +0800,
9,condition_1/rightstar.PNG,space,,,,,1,21,46,7,,,,,,,,,235.13913273664076,,,,,,,,,,,,,,,,,,,,,,,,,,,,,,,,,,,,,,,,,,,,,235.04259456678898,235.13913273664076,235.55783979202698,235.5578710408626,236.05351272969398,236.57145166466154,236.33782064610574,236.33785369775882,237.66584478222563,237.66584478222563,,237.97556070627178,right,0,0.3040947392585167,None,,,,,,,,,,,,,,,,,,,,,,,,,,,,,,,,,,,,,,,,,,,,,,,,,,,,,,,,,,,,,1,001,2023-11-09_17h49.16.003,untitled,2023.2.2,59.909527023986385,2023-11-09 17h49.36.417324 +0800,
2,condition_1/leftstar.PNG,left,,,,,1,22,47,17,,,,,,,,,238.081488850776,,,,,,,,,,,,,,,,,,,,,,,,,,,,,,,,,,,,,,,,,,,,,237.97662887560676,238.081488850776,238.4909747954103,238.4909856123149,238.98670782699202,239.50082659179765,239.27041390284734,239.270440945109,240.59947616134497,240.59947616134497,,240.94345583277544,space,0,0.329558033294461,None,,,,,,,,,,,,,,,,,,,,,,,,,,,,,,,,,,,,,,,,,,,,,,,,,,,,,,,,,,,,,1,001,2023-11-09_17h49.16.003,untitled,2023.2.2,59.909527023986385,2023-11-09 17h49.36.417324 +0800,
1,condition_1/rightstar.PNG,right,,,,,1,23,48,12,,,,,,,,,241.05491682401254,,,,,,,,,,,,,,,,,,,,,,,,,,,,,,,,,,,,,,,,,,,,,240.94517481920747,241.05491682401254,241.45739912334994,241.457409639785,241.9533869531303,242.45715664440382,242.23691485052842,242.23692506649394,243.56584370053514,243.56584370053514,,243.8922654324178,space,0,0.3232893365751579,None,,,,,,,,,,,,,,,,,,,,,,,,,,,,,,,,,,,,,,,,,,,,,,,,,,,,,,,,,,,,,1,001,2023-11-09_17h49.16.003,untitled,2023.2.2,59.909527023986385,2023-11-09 17h49.36.417324 +0800,
2,condition_1/rightstar.PNG,right,,,,,1,24,49,13,,,,,,,,,244.00066523963648,,,,,,,,,,,,,,,,,,,,,,,,,,,,,,,,,,,,,,,,,,,,,243.89339700083286,244.00066523963648,244.40730844163255,244.40731985947633,244.90337799913704,245.43264884361275,245.18791547430322,245.18795543675657,246.51664180781728,246.51664180781728,,246.8579905676591,space,0,0.332454559986445,None,,,,,,,,,,,,,,,,,,,,,,,,,,,,,,,,,,,,,,,,,,,,,,,,,,,,,,,,,,,,,1,001,2023-11-09_17h49.16.003,untitled,2023.2.2,59.909527023986385,2023-11-09 17h49.36.417324 +0800,
,,,,,,,,,,,,,,,,,,,,,,,,,,,,,,,,,,,,,,,,,,,,,,,,,,,,,,,,,,,,,,,,,,,,,,,,,,,,,,,,246.85839259594894,246.8702013506708,246.8702013506708,267.7376834516983,space,20.86620149970372,None,,,,,,,,,,,,,,,,,,,,,,,,,,,,,,,,,,,,,,,,,,,,,,,,,,,,,,1,001,2023-11-09_17h49.16.003,untitled,2023.2.2,59.909527023986385,2023-11-09 17h49.36.417324 +0800,
,,,,,,,,,,,,,,,,,,,,,,,,,,,,,,,,,,,,,,,,,,,,,,,,,,,,,,,,,,,,,,,,,,,,,,,,,,,,,,,,,,,,,,,267.73771349865564,267.7533673625141,267.7533673625141,300.35461389058815,space,32.59186496656969,None,,,,,,,,,,,,,,,,,,,,,,,,,,,,,,,,,,,,,,,,,,,,,,,1,001,2023-11-09_17h49.16.003,untitled,2023.2.2,59.909527023986385,2023-11-09 17h49.36.417324 +0800,
9,test2/rightstar.PNG,right,,,,,,,,,0,0,0,3,,,,,300.53514352229666,,,,,,,,,,,,,,,,,,,,,,,,,,,,,,,,,,,,,,,,,,,,,,,,,,,,,,,,,,,,,,,,,,,,,,,,,,,300.3823346125325,300.53514352229666,300.8707818578875,300.8708170128277,301.3698918670097,301.9048028258563,301.653892703517,301.65390382089123,302.9826100229438,302.9826100229438,303.74153426975676,right,0.7537639823516429,None,,,,,,,,,,,,,,,,,,,,,,,,,,,,,,,,,1,001,2023-11-09_17h49.16.003,untitled,2023.2.2,59.909527023986385,2023-11-09 17h49.36.417324 +0800,
8,test2/leftstar.PNG,left,,,,,,,,,0,1,1,5,,,,,303.83510079552326,,,,,,,,,,,,,,,,,,,,,,,,,,,,,,,,,,,,,,,,,,,,,,,,,,,,,,,,,,,,,,,,,,,,,,,,,,,303.74218328403623,303.83510079552326,304.2545515131047,304.2545884708622,304.7532787239898,305.25166249815214,305.03720774826894,305.0372284806695,306.3657444854819,306.3657444854819,306.8581876756995,space,0.4753158235690762,None,,,,,,,,,,,,,,,,,,,,,,,,,,,,,,,,,1,001,2023-11-09_17h49.16.003,untitled,2023.2.2,59.909527023986385,2023-11-09 17h49.36.417324 +0800,
2,test2/leftstar.PNG,space,,,,,,,,,0,2,2,4,,,,,306.94918007862685,,,,,,,,,,,,,,,,,,,,,,,,,,,,,,,,,,,,,,,,,,,,,,,,,,,,,,,,,,,,,,,,,,,,,,,,,,,306.8586900608271,306.94918007862685,307.370739191208,307.37075421468666,307.87002437409177,308.37549442268374,308.1540110885291,308.1540357270342,309.4827097788423,309.4827097788423,309.92487990231126,left,0.4298051995658625,None,,,,,,,,,,,,,,,,,,,,,,,,,,,,,,,,,1,001,2023-11-09_17h49.16.003,untitled,2023.2.2,59.909527023986385,2023-11-09 17h49.36.417324 +0800,
1,test2/blank.PNG,space,,,,,,,,,0,3,3,2,,,,,310.01722802395585,,,,,,,,,,,,,,,,,,,,,,,,,,,,,,,,,,,,,,,,,,,,,,,,,,,,,,,,,,,,,,,,,,,,,,,,,,,309.9254060245351,310.01722802395585,310.43761410332064,310.4376369390083,310.9366261593619,311.35652607895616,311.2205795216765,311.2205999536075,312.5417559562083,312.5417559562083,313.53767948549995,space,0.9944845805024443,None,313.35327740192366,,,,,,,,,,,,,,,,,,,,,,,,,,,,,,,,1,001,2023-11-09_17h49.16.003,untitled,2023.2.2,59.909527023986385,2023-11-09 17h49.36.417324 +0800,
8,test2/rightstar.PNG,right,,,,,,,,,0,4,4,1,,,,,313.6354276463257,,,,,,,,,,,,,,,,,,,,,,,,,,,,,,,,,,,,,,,,,,,,,,,,,,,,,,,,,,,,,,,,,,,,,,,,,,,313.538312574892,313.6354276463257,314.05427562194194,314.05430176279486,314.55338563106426,315.05623197933727,314.83732457083926,314.83734740652693,316.1660602189101,316.1660602189101,316.4085989584523,space,0.2352331223236206,None,,,,,,,,,,,,,,,,,,,,,,,,,,,,,,,,,1,001,2023-11-09_17h49.16.003,untitled,2023.2.2,59.909527023986385,2023-11-09 17h49.36.417324 +0800,
1,test2/leftstar.PNG,space,,,,,,,,,0,5,5,0,,,,,316.5020092400403,,,,,,,,,,,,,,,,,,,,,,,,,,,,,,,,,,,,,,,,,,,,,,,,,,,,,,,,,,,,,,,,,,,,,,,,,,,316.4093369117256,316.5020092400403,316.92081034240306,316.9208388870126,317.4199236566906,317.9197199383196,317.7039440237202,317.70396355424253,319.0327469769756,319.0327469769756,319.32543769402815,left,0.28776001134565377,None,,,,,,,,,,,,,,,,,,,,,,,,,,,,,,,,,1,001,2023-11-09_17h49.16.003,untitled,2023.2.2,59.909527023986385,2023-11-09 17h49.36.417324 +0800,
,,,,,,,,,,,,,,,,,,,,,,,,,,,,,,,,,,,,,,,,,,,,,,,,,,,,,,,,,,,,,,,,,,,,,,,,,,,,,,,,,,,,,,,,,,,,,,,,,,,,,,,,,,,,,319.32601459561005,319.3370292092482,319.3370292092482,320.33678703077163,325.18768471367054,space,5.84696844228165,None,,,,,,,,,,,,,,,,,,,,,,,,1,001,2023-11-09_17h49.16.003,untitled,2023.2.2,59.909527023986385,2023-11-09 17h49.36.417324 +0800,
,,,,,,,,,,,,,,,,,,,,,,,,,,,,,,,,,,,,,,,,,,,,,,,,,,,,,,,,,,,,,,,,,,,,,,,,,,,,,,,,,,,,,,,,,,,,,,,,,,,,,,,,,,,,,,,,,,,,,325.1877333897415,325.2038704086746,325.2038704086746,326.1212391725789,space,0.9012062050572922,None,,,,,,,,,,,,,,,,,1,001,2023-11-09_17h49.16.003,untitled,2023.2.2,59.909527023986385,2023-11-09 17h49.36.417324 +0800,
8,condition_2/rightstar.PNG,right,,,,,,,,,,,,,0,0,0,23,326.25915831261096,,,,,,,,,,,,,,,,,,,,,,,,,,,,,,,,,,,,,,,,,,,,,,,,,,,,,,,,,,,,,,,,,,,,,,,,,,,,,,,,,,,,,,,,,,,,,,,,,,,,,,,,,326.1387736755001,326.25915831261096,326.6241951922464,326.6242111171338,327.13672627582383,327.63191695982476,327.4203986990869,327.42041131880904,328.7498999436319,328.7498999436319,329.10911822996974,space,0,0.3473927053198622,None,,1,001,2023-11-09_17h49.16.003,untitled,2023.2.2,59.909527023986385,2023-11-09 17h49.36.417324 +0800,
9,condition_2/leftstar.PNG,left,,,,,,,,,,,,,0,1,1,20,329.20645925452294,,,,,,,,,,,,,,,,,,,,,,,,,,,,,,,,,,,,,,,,,,,,,,,,,,,,,,,,,,,,,,,,,,,,,,,,,,,,,,,,,,,,,,,,,,,,,,,,,,,,,,,,,329.11089130092506,329.20645925452294,329.6239506100133,329.6239641311441,330.1200928811547,330.6225636424604,330.4040786941833,330.4040997270534,331.732765065244,331.732765065244,331.99241073950367,space,0,0.24355192294513017,None,,1,001,2023-11-09_17h49.16.003,untitled,2023.2.2,59.909527023986385,2023-11-09 17h49.36.417324 +0800,
9,condition_2/blank.PNG,space,,,,,,,,,,,,,0,2,2,11,332.09884848040514,,,,,,,,,,,,,,,,,,,,,,,,,,,,,,,,,,,,,,,,,,,,,,,,,,,,,,,,,,,,,,,,,,,,,,,,,,,,,,,,,,,,,,,,,,,,,,,,,,,,,,,,,331.99362613892987,332.09884848040514,332.50738464071645,332.5073978613777,333.00320901504864,333.4079268080156,333.287315616846,333.28733394548993,334.60837607012235,334.60837607012235,334.80831934146687,space,1,0.1840667595317882,None,,1,001,2023-11-09_17h49.16.003,untitled,2023.2.2,59.909527023986385,2023-11-09 17h49.36.417324 +0800,
9,condition_2/rightstar.PNG,right,,,,,,,,,,,,,0,3,3,7,334.9106613816071,,,,,,,,,,,,,,,,,,,,,,,,,,,,,,,,,,,,,,,,,,,,,,,,,,,,,,,,,,,,,,,,,,,,,,,,,,,,,,,,,,,,,,,,,,,,,,,,,,,,,,,,,334.8091348158902,334.9106613816071,335.32414447298237,335.3241585950523,335.8200752135437,336.32429230401266,336.10418241628014,336.10422057591603,337.4328171065741,337.4328171065741,338.09156930450905,space,0,0.6477994810289829,None,,1,001,2023-11-09_17h49.16.003,untitled,2023.2.2,59.909527023986385,2023-11-09 17h49.36.417324 +0800,
1,condition_2/blank.PNG,space,,,,,,,,,,,,,0,4,4,8,338.18899476101245,,,,,,,,,,,,,,,,,,,,,,,,,,,,,,,,,,,,,,,,,,,,,,,,,,,,,,,,,,,,,,,,,,,,,,,,,,,,,,,,,,,,,,,,,,,,,,,,,,,,,,,,,338.0921732483525,338.18899476101245,338.607428689556,338.6074422106869,339.10333869771677,339.4729556350665,339.3873686797727,339.38739301780817,340.7084669922154,340.7084669922154,341.3749472675898,space,1,0.6527232759356139,None,,1,001,2023-11-09_17h49.16.003,untitled,2023.2.2,59.909527023986385,2023-11-09 17h49.36.417324 +0800,
8,condition_2/leftstar.PNG,left,,,,,,,,,,,,,0,5,5,2,341.4715362167996,,,,,,,,,,,,,,,,,,,,,,,,,,,,,,,,,,,,,,,,,,,,,,,,,,,,,,,,,,,,,,,,,,,,,,,,,,,,,,,,,,,,,,,,,,,,,,,,,,,,,,,,,341.3755061409972,341.4715362167996,341.8908228779937,341.8908360986549,342.3867950833563,342.9009396885452,342.67058018270956,342.67060121557967,343.99941077916566,343.99941077916566,344.2747917445384,space,0,0.2659299953968457,None,,1,001,2023-11-09_17h49.16.003,untitled,2023.2.2,59.909527023986385,2023-11-09 17h49.36.417324 +0800,
1,condition_2/rightstar.PNG,space,,,,,,,,,,,,,0,6,6,12,344.3708380456978,,,,,,,,,,,,,,,,,,,,,,,,,,,,,,,,,,,,,,,,,,,,,,,,,,,,,,,,,,,,,,,,,,,,,,,,,,,,,,,,,,,,,,,,,,,,,,,,,,,,,,,,,344.27531726582305,344.3708380456978,344.790759899571,344.79077462258016,345.2867507340472,345.78700523177616,345.57076869732015,345.5707930353556,346.8993733406567,346.8993733406567,347.30840136966043,right,0,0.40495336111280267,None,,1,001,2023-11-09_17h49.16.003,untitled,2023.2.2,59.909527023986385,2023-11-09 17h49.36.417324 +0800,
8,condition_2/blank.PNG,space,,,,,,,,,,,,,0,7,7,10,347.40272898485756,,,,,,,,,,,,,,,,,,,,,,,,,,,,,,,,,,,,,,,,,,,,,,,,,,,,,,,,,,,,,,,,,,,,,,,,,,,,,,,,,,,,,,,,,,,,,,,,,,,,,,,,,347.30898938861645,347.40272898485756,347.82403119595307,347.8240459189621,348.32002593653357,348.7084210203706,348.6045883506744,348.60462620984066,349.9250634892209,349.9250634892209,350.7376765408981,space,1,0.7968525211200586,None,350.71996536186754,1,001,2023-11-09_17h49.16.003,untitled,2023.2.2,59.909527023986385,2023-11-09 17h49.36.417324 +0800,
1,condition_2/leftstar.PNG,space,,,,,,,,,,,,,0,8,8,0,350.842840591276,,,,,,,,,,,,,,,,,,,,,,,,,,,,,,,,,,,,,,,,,,,,,,,,,,,,,,,,,,,,,,,,,,,,,,,,,,,,,,,,,,,,,,,,,,,,,,,,,,,,,,,,,350.7384661749382,350.842840591276,351.2407882038049,351.2408017249357,351.7535665738416,352.25785277231256,352.03776752308505,352.0377990723903,353.366092729718,353.366092729718,353.79156455708977,left,0,0.41956459554990033,None,,1,001,2023-11-09_17h49.16.003,untitled,2023.2.2,59.909527023986385,2023-11-09 17h49.36.417324 +0800,
2,condition_2/rightstar.PNG,space,,,,,,,,,,,,,0,9,9,13,353.8869951960924,,,,,,,,,,,,,,,,,,,,,,,,,,,,,,,,,,,,,,,,,,,,,,,,,,,,,,,,,,,,,,,,,,,,,,,,,,,,,,,,,,,,,,,,,,,,,,,,,,,,,,,,,353.7921540783937,353.8869951960924,354.3074446745373,354.30745789519864,354.8035538940256,355.29737804240466,355.0878068245053,355.0878377728714,356.4162519184982,356.4162519184982,356.69274762598985,right,0,0.27195320847420135,None,,1,001,2023-11-09_17h49.16.003,untitled,2023.2.2,59.909527023986385,2023-11-09 17h49.36.417324 +0800,
2,condition_2/leftstar.PNG,space,,,,,,,,,,,,,0,10,10,17,356.797033704273,,,,,,,,,,,,,,,,,,,,,,,,,,,,,,,,,,,,,,,,,,,,,,,,,,,,,,,,,,,,,,,,,,,,,,,,,,,,,,,,,,,,,,,,,,,,,,,,,,,,,,,,,356.69397023668586,356.797033704273,357.207466729004,357.2074808510741,357.70346537568906,358.2077083065414,357.98752660658073,357.9875566535381,359.3161889400755,359.3161889400755,359.6081840700646,left,0,0.2845032216347363,None,,1,001,2023-11-09_17h49.16.003,untitled,2023.2.2,59.909527023986385,2023-11-09 17h49.36.417324 +0800,
2,condition_2/leftstar.PNG,space,,,,,,,,,,,,,0,11,11,1,359.7053742588918,,,,,,,,,,,,,,,,,,,,,,,,,,,,,,,,,,,,,,,,,,,,,,,,,,,,,,,,,,,,,,,,,,,,,,,,,,,,,,,,,,,,,,,,,,,,,,,,,,,,,,,,,359.60875556319417,359.7053742588918,360.1241552297931,360.1241720560892,360.6201055008767,361.1168300820522,360.9038999147868,360.9039137363872,362.23264517788397,362.23264517788397,362.62585288288534,left,0,0.3841638712981421,None,,1,001,2023-11-09_17h49.16.003,untitled,2023.2.2,59.909527023986385,2023-11-09 17h49.36.417324 +0800,
9,condition_2/leftstar.PNG,left,,,,,,,,,,,,,0,12,12,3,362.72986583432584,,,,,,,,,,,,,,,,,,,,,,,,,,,,,,,,,,,,,,,,,,,,,,,,,,,,,,,,,,,,,,,,,,,,,,,,,,,,,,,,,,,,,,,,,,,,,,,,,,,,,,,,,362.6271977846979,362.72986583432584,363.1407693944096,363.1407841174187,363.6367866702082,364.1301447902783,363.92029083050994,363.9203040511712,365.2494146852701,365.2494146852701,365.90841056402945,space,0,0.6555690232695497,None,,1,001,2023-11-09_17h49.16.003,untitled,2023.2.2,59.909527023986385,2023-11-09 17h49.36.417324 +0800,
8,condition_2/rightstar.PNG,right,,,,,,,,,,,,,0,13,13,14,366.00935872581664,,,,,,,,,,,,,,,,,,,,,,,,,,,,,,,,,,,,,,,,,,,,,,,,,,,,,,,,,,,,,,,,,,,,,,,,,,,,,,,,,,,,,,,,,,,,,,,,,,,,,,,,,365.9089769491762,366.00935872581664,366.4241632823777,366.42417950773466,366.9201072436003,367.4197632059382,367.2039386152679,367.20395844625983,368.5328004605597,368.5328004605597,368.80820245880255,space,0,0.2596381625204458,None,,1,001,2023-11-09_17h49.16.003,untitled,2023.2.2,59.909527023986385,2023-11-09 17h49.36.417324 +0800,
8,condition_2/rightstar.PNG,right,,,,,,,,,,,,,0,14,14,6,368.9035038958885,,,,,,,,,,,,,,,,,,,,,,,,,,,,,,,,,,,,,,,,,,,,,,,,,,,,,,,,,,,,,,,,,,,,,,,,,,,,,,,,,,,,,,,,,,,,,,,,,,,,,,,,,368.80870875003455,368.9035038958885,369.324389355685,369.3244290176688,369.82014342013696,370.32077951422485,370.1042118622984,370.1042362003339,371.43280538826076,371.43280538826076,371.7750955192775,space,0,0.3365706926784924,None,,1,001,2023-11-09_17h49.16.003,untitled,2023.2.2,59.909527023986385,2023-11-09 17h49.36.417324 +0800,
2,condition_2/blank.PNG,space,,,,,,,,,,,,,0,15,15,9,371.8666642228474,,,,,,,,,,,,,,,,,,,,,,,,,,,,,,,,,,,,,,,,,,,,,,,,,,,,,,,,,,,,,,,,,,,,,,,,,,,,,,,,,,,,,,,,,,,,,,,,,,,,,,,,,371.77564838329334,371.8666642228474,372.29072564603956,372.29073916717044,372.7867315039944,373.1897215969116,373.07078882878164,373.07081286634747,374.39170415525376,374.39170415525376,374.99150482373847,space,1,0.584966485623795,None,,1,001,2023-11-09_17h49.16.003,untitled,2023.2.2,59.909527023986385,2023-11-09 17h49.36.417324 +0800,
8,condition_2/blank.PNG,space,,,,,,,,,,,,,0,16,16,24,375.0831681752242,,,,,,,,,,,,,,,,,,,,,,,,,,,,,,,,,,,,,,,,,,,,,,,,,,,,,,,,,,,,,,,,,,,,,,,,,,,,,,,,,,,,,,,,,,,,,,,,,,,,,,,,,374.9920228332838,375.0831681752242,375.5074786876931,375.5074937111718,376.0034004141673,376.3460351837852,376.28721225531257,376.28722577644345,377.60857888708466,377.60857888708466,379.0544907581569,space,1,1.4410710057677534,None,378.42001259568457,1,001,2023-11-09_17h49.16.003,untitled,2023.2.2,59.909527023986385,2023-11-09 17h49.36.417324 +0800,
8,condition_2/leftstar.PNG,left,,,,,,,,,,,,,0,17,17,18,379.15792590660686,,,,,,,,,,,,,,,,,,,,,,,,,,,,,,,,,,,,,,,,,,,,,,,,,,,,,,,,,,,,,,,,,,,,,,,,,,,,,,,,,,,,,,,,,,,,,,,,,,,,,,,,,379.0553672279038,379.15792590660686,379.55744287171996,379.55745729425945,380.07029185210644,380.58721489944486,380.35467668872917,380.35470763709526,381.68306198927684,381.68306198927684,382.0081898991744,space,0,0.30941004601993427,None,,1,001,2023-11-09_17h49.16.003,untitled,2023.2.2,59.909527023986385,2023-11-09 17h49.36.417324 +0800,
2,condition_2/rightstar.PNG,space,,,,,,,,,,,,,0,18,18,5,382.1025731012426,,,,,,,,,,,,,,,,,,,,,,,,,,,,,,,,,,,,,,,,,,,,,,,,,,,,,,,,,,,,,,,,,,,,,,,,,,,,,,,,,,,,,,,,,,,,,,,,,,,,,,,,,382.00879234067,382.1025731012426,382.52418119036423,382.5241968147821,383.0200788792725,383.5181654890262,383.3041425139207,383.30416474866917,384.6328721526001,384.6328721526001,384.874942159607,right,0,0.2394529170187525,None,,1,001,2023-11-09_17h49.16.003,untitled,2023.2.2,59.909527023986385,2023-11-09 17h49.36.417324 +0800,
9,condition_2/leftstar.PNG,left,,,,,,,,,,,,,0,19,19,19,384.9698394651161,,,,,,,,,,,,,,,,,,,,,,,,,,,,,,,,,,,,,,,,,,,,,,,,,,,,,,,,,,,,,,,,,,,,,,,,,,,,,,,,,,,,,,,,,,,,,,,,,,,,,,,,,384.87539496725475,384.9698394651161,385.39087876533443,385.3909025024307,385.8869495247172,386.37863703395664,386.17059670853604,386.1706123329539,387.49944833786236,387.49944833786236,387.54210960889674,space,0,0.030166844744940136,None,,1,001,2023-11-09_17h49.16.003,untitled,2023.2.2,59.909527023986385,2023-11-09 17h49.36.417324 +0800,
1,condition_2/leftstar.PNG,space,,,,,,,,,,,,,0,20,20,16,387.6436626159362,,,,,,,,,,,,,,,,,,,,,,,,,,,,,,,,,,,,,,,,,,,,,,,,,,,,,,,,,,,,,,,,,,,,,,,,,,,,,,,,,,,,,,,,,,,,,,,,,,,,,,,,,387.54309995661214,387.6436626159362,388.05744707829393,388.0574612003639,388.55347006301446,389.05218315182964,388.83730654266486,388.83732306849146,390.166495298853,390.166495298853,390.5081060681633,left,0,0.33038462509205146,None,,1,001,2023-11-09_17h49.16.003,untitled,2023.2.2,59.909527023986385,2023-11-09 17h49.36.417324 +0800,
9,condition_2/rightstar.PNG,right,,,,,,,,,,,,,0,21,21,15,390.60165787092063,,,,,,,,,,,,,,,,,,,,,,,,,,,,,,,,,,,,,,,,,,,,,,,,,,,,,,,,,,,,,,,,,,,,,,,,,,,,,,,,,,,,,,,,,,,,,,,,,,,,,,,,,390.5086177678476,390.60165787092063,391.0242070307476,391.0242211528176,391.52006776189825,392.01189979700274,391.80405057023114,391.804070401223,393.13286974884346,393.13286974884346,393.5083401339613,right,1,0.3727977082585312,None,,1,001,2023-11-09_17h49.16.003,untitled,2023.2.2,59.909527023986385,2023-11-09 17h49.36.417324 +0800,
1,condition_2/rightstar.PNG,space,,,,,,,,,,,,,0,22,22,4,393.60316412489436,,,,,,,,,,,,,,,,,,,,,,,,,,,,,,,,,,,,,,,,,,,,,,,,,,,,,,,,,,,,,,,,,,,,,,,,,,,,,,,,,,,,,,,,,,,,,,,,,,,,,,,,,393.50890501676014,393.60316412489436,394.02421093685206,394.024225058922,394.52010231589924,395.01028206881716,394.80406349042283,394.80407580967534,396.1326227628537,396.1326227628537,396.4248273201359,right,0,0.2840380947344556,None,,1,001,2023-11-09_17h49.16.003,untitled,2023.2.2,59.909527023986385,2023-11-09 17h49.36.417324 +0800,
2,condition_2/rightstar.PNG,space,,,,,,,,,,,,,0,23,23,21,396.52170652295405,,,,,,,,,,,,,,,,,,,,,,,,,,,,,,,,,,,,,,,,,,,,,,,,,,,,,,,,,,,,,,,,,,,,,,,,,,,,,,,,,,,,,,,,,,,,,,,,,,,,,,,,,396.4253988132653,396.52170652295405,396.9408213155519,396.94083543762184,397.43683648806353,397.94217493098216,397.72074538088117,397.7207679160993,399.0495312073709,399.0495312073709,399.3756536715579,right,0,0.3197074387852581,None,,1,001,2023-11-09_17h49.16.003,untitled,2023.2.2,59.909527023986385,2023-11-09 17h49.36.417324 +0800,
1,condition_2/leftstar.PNG,space,,,,,,,,,,,,,0,24,24,22,399.46905523952836,,,,,,,,,,,,,,,,,,,,,,,,,,,,,,,,,,,,,,,,,,,,,,,,,,,,,,,,,,,,,,,,,,,,,,,,,,,,,,,,,,,,,,,,,,,,,,,,,,,,,,,,,399.3766193807682,399.46905523952836,399.8908541268294,399.89086884983845,400.38673649178935,400.8790462735163,400.6706150371801,400.6706279573718,401.99953757732584,401.99953757732584,402.2751799512278,left,0,0.2657310845388565,None,,1,001,2023-11-09_17h49.16.003,untitled,2023.2.2,59.909527023986385,2023-11-09 17h49.36.417324 +0800,
8,condition_2/blank.PNG,space,,,,,,,,,,,,,1,0,25,24,402.3755274743368,,,,,,,,,,,,,,,,,,,,,,,,,,,,,,,,,,,,,,,,,,,,,,,,,,,,,,,,,,,,,,,,,,,,,,,,,,,,,,,,,,,,,,,,,,,,,,,,,,,,,,,,,402.2760095477211,402.3755274743368,402.7909062282535,402.79092035032346,403.2869478420876,403.69182368205026,403.5707236268841,403.57074285693676,404.89184177031865,404.89184177031865,405.75392683686067,space,1,0.8605424557498509,None,405.7032448310219,1,001,2023-11-09_17h49.16.003,untitled,2023.2.2,59.909527023986385,2023-11-09 17h49.36.417324 +0800,
9,condition_2/leftstar.PNG,left,,,,,,,,,,,,,1,1,26,3,405.84527529623296,,,,,,,,,,,,,,,,,,,,,,,,,,,,,,,,,,,,,,,,,,,,,,,,,,,,,,,,,,,,,,,,,,,,,,,,,,,,,,,,,,,,,,,,,,,,,,,,,,,,,,,,,405.7543973722133,405.84527529623296,406.2574621618665,406.25747688487564,406.7534058226195,407.246529576422,407.0373069032284,407.0373243304636,408.36614861705874,408.36614861705874,408.8088433604036,space,0,0.4273620814609558,None,,1,001,2023-11-09_17h49.16.003,untitled,2023.2.2,59.909527023986385,2023-11-09 17h49.36.417324 +0800,
2,condition_2/rightstar.PNG,space,,,,,,,,,,,,,1,2,27,5,408.91183231153644,,,,,,,,,,,,,,,,,,,,,,,,,,,,,,,,,,,,,,,,,,,,,,,,,,,,,,,,,,,,,,,,,,,,,,,,,,,,,,,,,,,,,,,,,,,,,,,,,,,,,,,,,408.80982829966666,408.91183231153644,409.3242189894367,409.32423251056747,409.8200658989869,410.3216511764586,410.1041094021737,410.104131035983,411.43302322870176,411.43302322870176,411.84252149258856,right,0,0.39235076577676864,None,,1,001,2023-11-09_17h49.16.003,untitled,2023.2.2,59.909527023986385,2023-11-09 17h49.36.417324 +0800,
1,condition_2/rightstar.PNG,space,,,,,,,,,,,,,1,3,28,4,411.9372243942834,,,,,,,,,,,,,,,,,,,,,,,,,,,,,,,,,,,,,,,,,,,,,,,,,,,,,,,,,,,,,,,,,,,,,,,,,,,,,,,,,,,,,,,,,,,,,,,,,,,,,,,,,411.8437552206588,411.9372243942834,412.35749990084497,412.35751402291504,412.85355864144486,413.35777903707907,413.13774637002706,413.13777581604535,414.46618365181104,414.46618365181104,414.8101972763034,right,0,0.3419632201203058,None,,1,001,2023-11-09_17h49.16.003,untitled,2023.2.2,59.909527023986385,2023-11-09 17h49.36.417324 +0800,
9,condition_2/blank.PNG,space,,,,,,,,,,,,,1,4,29,11,414.9066215681867,,,,,,,,,,,,,,,,,,,,,,,,,,,,,,,,,,,,,,,,,,,,,,,,,,,,,,,,,,,,,,,,,,,,,,,,,,,,,,,,,,,,,,,,,,,,,,,,,,,,,,,,,414.81175040353065,414.9066215681867,415.3241483790868,415.32416250115676,415.8202173356521,416.1916530153323,416.1041806134627,416.1042052519677,417.42537177100365,417.42537177100365,418.2090562130497,space,1,0.7753452094933664,None,,1,001,2023-11-09_17h49.16.003,untitled,2023.2.2,59.909527023986385,2023-11-09 17h49.36.417324 +0800,
8,condition_2/leftstar.PNG,left,,,,,,,,,,,,,1,5,30,18,418.3112912860218,,,,,,,,,,,,,,,,,,,,,,,,,,,,,,,,,,,,,,,,,,,,,,,,,,,,,,,,,,,,,,,,,,,,,,,,,,,,,,,,,,,,,,,,,,,,,,,,,,,,,,,,,418.2102019035348,418.3112912860218,418.7241154476215,418.72412956969146,419.2202559159454,419.722123935286,419.5044000764395,419.50442952245766,420.8328274427275,420.8328274427275,421.2584870635829,space,0,0.4235641460475108,None,,1,001,2023-11-09_17h49.16.003,untitled,2023.2.2,59.909527023986385,2023-11-09 17h49.36.417324 +0800,
9,condition_2/leftstar.PNG,left,,,,,,,,,,,,,1,6,31,19,421.3538308668787,,,,,,,,,,,,,,,,,,,,,,,,,,,,,,,,,,,,,,,,,,,,,,,,,,,,,,,,,,,,,,,,,,,,,,,,,,,,,,,,,,,,,,,,,,,,,,,,,,,,,,,,,421.25908169286964,421.3538308668787,421.7745114064259,421.7745510684097,422.2701128323344,422.76259448265745,422.5537999786065,422.5538128987982,423.8828997958008,423.8828997958008,424.3419899619125,space,0,0.4465993454571162,None,,1,001,2023-11-09_17h49.16.003,untitled,2023.2.2,59.909527023986385,2023-11-09 17h49.36.417324 +0800,
9,condition_2/rightstar.PNG,right,,,,,,,,,,,,,1,7,32,15,424.4386005449316,,,,,,,,,,,,,,,,,,,,,,,,,,,,,,,,,,,,,,,,,,,,,,,,,,,,,,,,,,,,,,,,,,,,,,,,,,,,,,,,,,,,,,,,,,,,,,,,,,,,,,,,,424.3428090419707,424.4386005449316,424.85756390086425,424.85757892434293,425.35354692313143,425.8561381727363,425.6375020882635,425.6375312338121,426.9662236142644,426.9662236142644,427.2256935138234,space,0,0.2579678521593678,None,,1,001,2023-11-09_17h49.16.003,untitled,2023.2.2,59.909527023986385,2023-11-09 17h49.36.417324 +0800,
2,condition_2/leftstar.PNG,space,,,,,,,,,,,,,1,8,33,17,427.3227115335847,,,,,,,,,,,,,,,,,,,,,,,,,,,,,,,,,,,,,,,,,,,,,,,,,,,,,,,,,,,,,,,,,,,,,,,,,,,,,,,,,,,,,,,,,,,,,,,,,,,,,,,,,427.2266760493299,427.3227115335847,427.7407701756304,427.7407842977004,428.23686887868354,428.7320790932069,428.52068522687256,428.5207020531687,429.84945242424857,429.84945242424857,430.17489041874643,left,0,0.31191265710049265,None,,1,001,2023-11-09_17h49.16.003,untitled,2023.2.2,59.909527023986385,2023-11-09 17h49.36.417324 +0800,
1,condition_2/leftstar.PNG,space,,,,,,,,,,,,,1,9,34,22,430.27007347082014,,,,,,,,,,,,,,,,,,,,,,,,,,,,,,,,,,,,,,,,,,,,,,,,,,,,,,,,,,,,,,,,,,,,,,,,,,,,,,,,,,,,,,,,,,,,,,,,,,,,,,,,,430.1754225503617,430.27007347082014,430.691065897785,430.6910905362901,431.18690289183934,431.68709338954915,431.47076100529904,431.47078113676054,432.7994990571264,432.7994990571264,433.47489756992223,space,1,0.6650154862018098,None,,1,001,2023-11-09_17h49.16.003,untitled,2023.2.2,59.909527023986385,2023-11-09 17h49.36.417324 +0800,
2,condition_2/rightstar.PNG,space,,,,,,,,,,,,,1,10,35,13,433.57771044588486,,,,,,,,,,,,,,,,,,,,,,,,,,,,,,,,,,,,,,,,,,,,,,,,,,,,,,,,,,,,,,,,,,,,,,,,,,,,,,,,,,,,,,,,,,,,,,,,,,,,,,,,,433.4754852884087,433.57771044588486,433.9910823635177,433.99110640108364,434.4868851040406,434.9888117149481,434.77089074806105,434.7709150860965,436.0993532692892,436.0993532692892,436.4583747480562,right,0,0.34951642426790386,None,,1,001,2023-11-09_17h49.16.003,untitled,2023.2.2,59.909527023986385,2023-11-09 17h49.36.417324 +0800,
8,condition_2/leftstar.PNG,left,,,,,,,,,,,,,1,11,36,2,436.548667357346,,,,,,,,,,,,,,,,,,,,,,,,,,,,,,,,,,,,,,,,,,,,,,,,,,,,,,,,,,,,,,,,,,,,,,,,,,,,,,,,,,,,,,,,,,,,,,,,,,,,,,,,,436.45884678575675,436.548667357346,436.97461212382706,436.97468333511614,437.4701973243785,437.9701540567599,437.75409630170026,437.75411703410083,439.08289715166865,439.08289715166865,439.3919090755032,space,0,0.3021888607515848,None,,1,001,2023-11-09_17h49.16.003,untitled,2023.2.2,59.909527023986385,2023-11-09 17h49.36.417324 +0800,
1,condition_2/leftstar.PNG,space,,,,,,,,,,,,,1,12,37,0,439.48871105764084,,,,,,,,,,,,,,,,,,,,,,,,,,,,,,,,,,,,,,,,,,,,,,,,,,,,,,,,,,,,,,,,,,,,,,,,,,,,,,,,,,,,,,,,,,,,,,,,,,,,,,,,,439.39274197716185,439.48871105764084,439.90761071402386,439.9076305450157,440.40355407430735,440.9070115776936,440.6876008826594,440.68762642257315,442.01640143215815,442.01640143215815,442.27599542565116,left,0,0.2490063471192343,None,,1,001,2023-11-09_17h49.16.003,untitled,2023.2.2,59.909527023986385,2023-11-09 17h49.36.417324 +0800,
8,condition_2/rightstar.PNG,right,,,,,,,,,,,,,1,13,38,14,442.37427121104855,,,,,,,,,,,,,,,,,,,,,,,,,,,,,,,,,,,,,,,,,,,,,,,,,,,,,,,,,,,,,,,,,,,,,,,,,,,,,,,,,,,,,,,,,,,,,,,,,,,,,,,,,442.2772219424516,442.37427121104855,442.7907935521633,442.79080767423324,443.2868273537885,443.7940386235609,443.5710986129122,443.57112445329557,444.89977086190294,444.89977086190294,445.4263645224757,space,0,0.5248782797756348,None,,1,001,2023-11-09_17h49.16.003,untitled,2023.2.2,59.909527023986385,2023-11-09 17h49.36.417324 +0800,
1,condition_2/rightstar.PNG,space,,,,,,,,,,,,,1,14,39,12,445.52780004591176,,,,,,,,,,,,,,,,,,,,,,,,,,,,,,,,,,,,,,,,,,,,,,,,,,,,,,,,,,,,,,,,,,,,,,,,,,,,,,,,,,,,,,,,,,,,,,,,,,,,,,,,,445.4276349078339,445.52780004591176,445.9408510620397,445.9408645831706,446.43701406558165,446.92783982808334,446.720581925433,446.7205954465639,448.04957147029376,448.04957147029376,448.5255967025267,right,0,0.4633129655024959,None,,1,001,2023-11-09_17h49.16.003,untitled,2023.2.2,59.909527023986385,2023-11-09 17h49.36.417324 +0800,
8,condition_2/rightstar.PNG,right,,,,,,,,,,,,,1,15,40,6,448.6272584795518,,,,,,,,,,,,,,,,,,,,,,,,,,,,,,,,,,,,,,,,,,,,,,,,,,,,,,,,,,,,,,,,,,,,,,,,,,,,,,,,,,,,,,,,,,,,,,,,,,,,,,,,,448.5265798389723,448.6272584795518,449.04094498882847,449.04095911089854,449.53691118479964,450.0384595045136,449.82089219031496,449.8209153264722,451.1495073500867,451.1495073500867,451.4592950863609,space,0,0.30694950067970694,None,,1,001,2023-11-09_17h49.16.003,untitled,2023.2.2,59.909527023986385,2023-11-09 17h49.36.417324 +0800,
2,condition_2/leftstar.PNG,space,,,,,,,,,,,,,1,16,41,1,451.5616867039809,,,,,,,,,,,,,,,,,,,,,,,,,,,,,,,,,,,,,,,,,,,,,,,,,,,,,,,,,,,,,,,,,,,,,,,,,,,,,,,,,,,,,,,,,,,,,,,,,,,,,,,,,451.46044288013303,451.5616867039809,451.974225119016,451.9742380392077,452.47023308025786,452.971623352976,452.7542840951839,452.7543102360368,454.08313151793624,454.08313151793624,454.49221934038513,left,0,0.398323499965727,None,,1,001,2023-11-09_17h49.16.003,untitled,2023.2.2,59.909527023986385,2023-11-09 17h49.36.417324 +0800,
1,condition_2/blank.PNG,space,,,,,,,,,,,,,1,17,42,8,454.5894579048136,,,,,,,,,,,,,,,,,,,,,,,,,,,,,,,,,,,,,,,,,,,,,,,,,,,,,,,,,,,,,,,,,,,,,,,,,,,,,,,,,,,,,,,,,,,,,,,,,,,,,,,,,454.4931943641523,454.5894579048136,455.0075348755034,455.0075495985125,455.50368225462756,455.91851445438925,455.7883233917967,455.7883678612936,457.1086353753646,457.1086353753646,457.20811544281406,right,0,0.08385204397438883,None,,1,001,2023-11-09_17h49.16.003,untitled,2023.2.2,59.909527023986385,2023-11-09 17h49.36.417324 +0800,
2,condition_2/blank.PNG,space,,,,,,,,,,,,,1,18,43,9,457.2998385877449,,,,,,,,,,,,,,,,,,,,,,,,,,,,,,,,,,,,,,,,,,,,,,,,,,,,,,,,,,,,,,,,,,,,,,,,,,,,,,,,,,,,,,,,,,,,,,,,,,,,,,,,,457.20859288896685,457.2998385877449,457.72430834908795,457.72432217068837,458.2202823572679,458.5635216716684,458.50464225491595,458.5046729028125,459.825235478005,459.825235478005,461.27137540548364,space,1,1.4387621975623688,None,460.6369302946645,1,001,2023-11-09_17h49.16.003,untitled,2023.2.2,59.909527023986385,2023-11-09 17h49.36.417324 +0800,
8,condition_2/rightstar.PNG,right,,,,,,,,,,,,,1,19,44,23,461.37431598101506,,,,,,,,,,,,,,,,,,,,,,,,,,,,,,,,,,,,,,,,,,,,,,,,,,,,,,,,,,,,,,,,,,,,,,,,,,,,,,,,,,,,,,,,,,,,,,,,,,,,,,,,,461.27224376255214,461.37431598101506,461.7742055283997,461.7742193500001,462.28694453692225,462.7906817774818,462.5707602841721,462.5707720024855,463.8996659980217,463.8996659980217,464.1582960851218,space,0,0.24505967926677386,None,,1,001,2023-11-09_17h49.16.003,untitled,2023.2.2,59.909527023986385,2023-11-09 17h49.36.417324 +0800,
2,condition_2/rightstar.PNG,space,,,,,,,,,,,,,1,20,45,21,464.2526729773289,,,,,,,,,,,,,,,,,,,,,,,,,,,,,,,,,,,,,,,,,,,,,,,,,,,,,,,,,,,,,,,,,,,,,,,,,,,,,,,,,,,,,,,,,,,,,,,,,,,,,,,,,464.1588964233303,464.2526729773289,464.6742756579983,464.6742900805378,465.170301346945,465.6767347009907,465.45446263420473,465.45449177975337,466.78331937151376,466.78331937151376,467.2249946215946,right,0,0.4406656723126616,None,,1,001,2023-11-09_17h49.16.003,untitled,2023.2.2,59.909527023986385,2023-11-09 17h49.36.417324 +0800,
8,condition_2/blank.PNG,space,,,,,,,,,,,,,1,21,46,10,467.3206443029166,,,,,,,,,,,,,,,,,,,,,,,,,,,,,,,,,,,,,,,,,,,,,,,,,,,,,,,,,,,,,,,,,,,,,,,,,,,,,,,,,,,,,,,,,,,,,,,,,,,,,,,,,467.22557843397664,467.3206443029166,467.7407563540301,467.7407692742217,468.23705486934983,468.6127473014828,468.52076304849214,468.52078047572746,469.84194128584153,469.84194128584153,470.72130185053203,space,1,0.870935397839844,None,470.63679568429535,1,001,2023-11-09_17h49.16.003,untitled,2023.2.2,59.909527023986385,2023-11-09 17h49.36.417324 +0800,
9,condition_2/rightstar.PNG,right,,,,,,,,,,,,,1,22,47,7,470.82023416194824,,,,,,,,,,,,,,,,,,,,,,,,,,,,,,,,,,,,,,,,,,,,,,,,,,,,,,,,,,,,,,,,,,,,,,,,,,,,,,,,,,,,,,,,,,,,,,,,,,,,,,,,,470.72203139065726,470.82023416194824,471.2243398983932,471.22435462140226,471.7369575172078,472.2405033586488,472.02096376216747,472.02098599691595,473.35000408638615,473.35000408638615,474.02569796077313,space,0,0.6741692917692035,None,,1,001,2023-11-09_17h49.16.003,untitled,2023.2.2,59.909527023986385,2023-11-09 17h49.36.417324 +0800,
9,condition_2/leftstar.PNG,left,,,,,,,,,,,,,1,23,48,20,474.1311606779074,,,,,,,,,,,,,,,,,,,,,,,,,,,,,,,,,,,,,,,,,,,,,,,,,,,,,,,,,,,,,,,,,,,,,,,,,,,,,,,,,,,,,,,,,,,,,,,,,,,,,,,,,474.0266988249236,474.1311606779074,474.54087858505267,474.5408927071226,475.0369577575835,475.53131043194304,475.32072542970155,475.32074045318024,476.64959118109783,476.64959118109783,477.55472993193763,space,0,0.8953281187840503,None,477.4539566434424,1,001,2023-11-09_17h49.16.003,untitled,2023.2.2,59.909527023986385,2023-11-09 17h49.36.417324 +0800,
1,condition_2/leftstar.PNG,space,,,,,,,,,,,,,1,24,49,16,477.6549867132355,,,,,,,,,,,,,,,,,,,,,,,,,,,,,,,,,,,,,,,,,,,,,,,,,,,,,,,,,,,,,,,,,,,,,,,,,,,,,,,,,,,,,,,,,,,,,,,,,,,,,,,,,477.55570826087006,477.6549867132355,478.05768805489214,478.05770187649256,478.57018458446856,479.0745837594994,478.8542701533957,478.8542947919007,480.18323896585576,480.18323896585576,480.69153012327666,left,0,0.4979459899931271,None,,1,001,2023-11-09_17h49.16.003,untitled,2023.2.2,59.909527023986385,2023-11-09 17h49.36.417324 +0800,
