stimuli,star,CorrectAns,trials_3.thisRepN,trials_3.thisTrialN,trials_3.thisN,trials_3.thisIndex,trials.thisRepN,trials.thisTrialN,trials.thisN,trials.thisIndex,trials_4.thisRepN,trials_4.thisTrialN,trials_4.thisN,trials_4.thisIndex,trials_2.thisRepN,trials_2.thisTrialN,trials_2.thisN,trials_2.thisIndex,thisRow.t,notes,routine_21.started,text_9.started,key_resp_8.started,routine_21.stopped,key_resp_8.keys,key_resp_8.rt,key_resp_8.duration,introduction.started,text_6.started,key_resp_5.started,introduction.stopped,key_resp_5.keys,key_resp_5.rt,key_resp_5.duration,routine_14.started,image_6.started,routine_14.stopped,routine_16.started,text_4.started,text_4.stopped,routine_16.stopped,routine_17.started,image_7.started,key_resp_3.started,image_7.stopped,routine_17.stopped,key_resp_3.keys,key_resp_3.rt,key_resp_3.duration,routine_20.started,text_8.started,key_resp_7.started,routine_20.stopped,key_resp_7.keys,key_resp_7.rt,key_resp_7.duration,routine_18.started,text_5.started,key_resp_4.started,routine_18.stopped,key_resp_4.keys,key_resp_4.rt,key_resp_4.duration,trial.started,image_3.started,trial.stopped,routine.started,text_3.started,text_3.stopped,routine.stopped,routine_1.started,image_2.started,key_resp.started,image_2.stopped,routine_1.stopped,key_resp.keys,key_resp.corr,key_resp.rt,key_resp.duration,routine_22.started,text_10.started,key_resp_9.started,routine_22.stopped,key_resp_9.keys,key_resp_9.rt,key_resp_9.duration,routine_19.started,text_7.started,key_resp_6.started,routine_19.stopped,key_resp_6.keys,key_resp_6.rt,key_resp_6.duration,routine_23.started,image_8.started,routine_23.stopped,routine_24.started,text_11.started,text_11.stopped,routine_24.stopped,routine_25.started,image_9.started,key_resp_10.started,image_9.stopped,routine_25.stopped,key_resp_10.keys,key_resp_10.rt,key_resp_10.duration,routine_26.started,text_12.started,key_resp_11.started,text_12.stopped,routine_26.stopped,key_resp_11.keys,key_resp_11.rt,key_resp_11.duration,routine_27.started,text_13.started,key_resp_12.started,text_13.stopped,routine_27.stopped,key_resp_12.keys,key_resp_12.rt,key_resp_12.duration,routine_10.started,image_4.started,routine_10.stopped,routine_11.started,text.started,text.stopped,routine_11.stopped,routine_12.started,image_5.started,key_resp_2.started,image_5.stopped,routine_12.stopped,key_resp_2.keys,key_resp_2.corr,key_resp_2.rt,key_resp_2.duration,participant,session,date,expName,psychopyVersion,frameRate,expStart,
,,,,,,,,,,,,,,,,,,,,,0.3377801999999974,0.3438980999999899,0.3438980999999899,4.839817000000011,space,4.493483899999987,None,,,,,,,,,,,,,,,,,,,,,,,,,,,,,,,,,,,,,,,,,,,,,,,,,,,,,,,,,,,,,,,,,,,,,,,,,,,,,,,,,,,,,,,,,,,,,,,,,,,,,,,,,,,,,,,,,,002,001,2023-11-11_13h32.29.525,untitled,2023.2.2,60.55809125741306,2023-11-11 13h32.58.287545 +0800,
,,,,,,,,,,,,,,,,,,,,,,,,,,,,4.8398506999999995,4.8548106000000075,4.8548106000000075,26.6229237,space,21.76389210000002,None,,,,,,,,,,,,,,,,,,,,,,,,,,,,,,,,,,,,,,,,,,,,,,,,,,,,,,,,,,,,,,,,,,,,,,,,,,,,,,,,,,,,,,,,,,,,,,,,,,,,,,,,,,,002,001,2023-11-11_13h32.29.525,untitled,2023.2.2,60.55809125741306,2023-11-11 13h32.58.287545 +0800,
9,test/rightstar.PNG,space,0,0,0,3,,,,,,,,,,,,,26.864786199999998,,,,,,,,,,,,,,,,26.631352099999987,26.864786199999998,27.138834099999997,27.138865699999997,27.638344499999988,28.255526500000002,27.92250519999999,27.92253550000001,29.258471499999985,29.258471499999985,30.071659899999986,34.039244499999995,right,4.777547199999987,None,,,,,,,,,,,,,,,,,,,,,,,,,,,,,,,,,,,,,,,,,,,,,,,,,,,,,,,,,,,,,,,,,,,,,,,,,,,,,,,,,,,,,,,,,,,,002,001,2023-11-11_13h32.29.525,untitled,2023.2.2,60.55809125741306,2023-11-11 13h32.58.287545 +0800,
2,test/leftstar.PNG,left,0,1,1,4,,,,,,,,,,,,,34.131253499999985,,,,,,,,,,,,,,,,34.0399017,34.131253499999985,34.5552687,34.5552826,35.054746300000005,35.52046060000001,35.338751599999995,35.33877240000001,36.6576096,36.6576096,37.55385480000001,37.45678649999999,left,0.7849278000000197,None,,,,,,,,,,,,,,,,,,,,,,,,,,,,,,,,,,,,,,,,,,,,,,,,,,,,,,,,,,,,,,,,,,,,,,,,,,,,,,,,,,,,,,,,,,,,002,001,2023-11-11_13h32.29.525,untitled,2023.2.2,60.55809125741306,2023-11-11 13h32.58.287545 +0800,
1,test/blank.PNG,space,0,2,2,2,,,,,,,,,,,,,37.55385480000001,,,,,,,,,,,,,,,,37.45764919999999,37.55385480000001,37.97205629999999,37.972075099999984,38.471419199999985,38.89615739999999,38.755053799999985,38.755065599999995,40.072532499999994,40.072532499999994,40.87143789999999,46.75614719999999,space,6.673383399999977,None,,,,,,,,,,,,,,,,,,,,,,,,,,,,,,,,,,,,,,,,,,,,,,,,,,,,,,,,,,,,,,,,,,,,,,,,,,,,,,,,,,,,,,,,,,,,002,001,2023-11-11_13h32.29.525,untitled,2023.2.2,60.55809125741306,2023-11-11 13h32.58.287545 +0800,
1,test/leftstar.PNG,left,0,3,3,0,,,,,,,,,,,,,46.850718900000004,,,,,,,,,,,,,,,,46.75702129999999,46.850718900000004,47.2720831,47.27210980000001,47.7712827,48.33308840000001,48.05573179999999,48.05575540000001,49.37357850000001,49.37357850000001,50.188053,50.406315199999995,left,1.0315761000000236,None,,,,,,,,,,,,,,,,,,,,,,,,,,,,,,,,,,,,,,,,,,,,,,,,,,,,,,,,,,,,,,,,,,,,,,,,,,,,,,,,,,,,,,,,,,,,002,001,2023-11-11_13h32.29.525,untitled,2023.2.2,60.55809125741306,2023-11-11 13h32.58.287545 +0800,
8,test/rightstar.PNG,space,0,4,4,1,,,,,,,,,,,,,50.49178090000001,,,,,,,,,,,,,,,,50.4068403,50.49178090000001,50.92219309999999,50.92222000000001,51.421452999999985,51.863265600000005,51.7061027,51.706140500000004,53.0241034,53.0241034,,53.59014350000001,right,0.5557268000000022,None,,,,,,,,,,,,,,,,,,,,,,,,,,,,,,,,,,,,,,,,,,,,,,,,,,,,,,,,,,,,,,,,,,,,,,,,,,,,,,,,,,,,,,,,,,,,002,001,2023-11-11_13h32.29.525,untitled,2023.2.2,60.55809125741306,2023-11-11 13h32.58.287545 +0800,
8,test/rightstar.PNG,space,0,5,5,5,,,,,,,,,,,,,53.64806730000001,,,,,,,,,,,,,,,,53.59101429999998,53.64806730000001,54.105607899999995,54.1056394,54.60482110000001,55.156023000000005,54.889309199999985,54.889342400000004,56.20712739999999,56.20712739999999,57.0214282,57.322599499999995,right,1.0989774000000239,None,,,,,,,,,,,,,,,,,,,,,,,,,,,,,,,,,,,,,,,,,,,,,,,,,,,,,,,,,,,,,,,,,,,,,,,,,,,,,,,,,,,,,,,,,,,,002,001,2023-11-11_13h32.29.525,untitled,2023.2.2,60.55809125741306,2023-11-11 13h32.58.287545 +0800,
,,,,,,,,,,,,,,,,,,,,,,,,,,,,,,,,,,,,,,,,,,,,,,,,,,57.3232673,57.33813939999999,57.33813939999999,59.70605330000001,space,2.352548899999988,None,,,,,,,,,,,,,,,,,,,,,,,,,,,,,,,,,,,,,,,,,,,,,,,,,,,,,,,,,,,,,,,,,,,,,,,,,,,,,,,,,,,,,002,001,2023-11-11_13h32.29.525,untitled,2023.2.2,60.55809125741306,2023-11-11 13h32.58.287545 +0800,
,,,,,,,,,,,,,,,,,,,,,,,,,,,,,,,,,,,,,,,,,,,,,,,,,,,,,,,,,59.706101700000005,59.72144349999999,59.72144349999999,80.49031360000001,space,20.766764800000004,None,,,,,,,,,,,,,,,,,,,,,,,,,,,,,,,,,,,,,,,,,,,,,,,,,,,,,,,,,,,,,,,,,,,,,,,,,,,,,,002,001,2023-11-11_13h32.29.525,untitled,2023.2.2,60.55809125741306,2023-11-11 13h32.58.287545 +0800,
8,condition_1/leftstar.PNG,space,,,,,0,0,0,18,,,,,,,,,80.75170499999999,,,,,,,,,,,,,,,,,,,,,,,,,,,,,,,,,,,,,,,,,,,,,80.56450559999999,80.75170499999999,81.0056444,81.0056706,81.5047064,82.10399809999998,81.7889007,81.78892529999999,83.12141019999999,83.12141019999999,83.92138829999999,85.00616249999999,space,1,1.8803615000000207,None,,,,,,,,,,,,,,,,,,,,,,,,,,,,,,,,,,,,,,,,,,,,,,,,,,,,,,,,,,,,,,002,001,2023-11-11_13h32.29.525,untitled,2023.2.2,60.55809125741306,2023-11-11 13h32.58.287545 +0800,
8,condition_1/rightstar.PNG,space,,,,,0,1,1,14,,,,,,,,,85.06862960000001,,,,,,,,,,,,,,,,,,,,,,,,,,,,,,,,,,,,,,,,,,,,,85.0076195,85.06862960000001,85.522154,85.5221875,86.02147579999999,86.4356013,86.30553459999999,86.305556,87.623602,87.623602,,87.7893455,space,1,0.153209099999998,None,,,,,,,,,,,,,,,,,,,,,,,,,,,,,,,,,,,,,,,,,,,,,,,,,,,,,,,,,,,,,,002,001,2023-11-11_13h32.29.525,untitled,2023.2.2,60.55809125741306,2023-11-11 13h32.58.287545 +0800,
8,condition_1/rightstar.PNG,space,,,,,0,2,2,6,,,,,,,,,87.84849750000001,,,,,,,,,,,,,,,,,,,,,,,,,,,,,,,,,,,,,,,,,,,,,87.78989580000001,87.84849750000001,88.30584970000001,88.30588470000001,88.80471030000001,89.2298902,89.08926170000001,89.08928929999999,90.40677969999999,90.40677969999999,,90.839779,right,0,0.4208748000000071,None,,,,,,,,,,,,,,,,,,,,,,,,,,,,,,,,,,,,,,,,,,,,,,,,,,,,,,,,,,,,,,002,001,2023-11-11_13h32.29.525,untitled,2023.2.2,60.55809125741306,2023-11-11 13h32.58.287545 +0800,
9,condition_1/rightstar.PNG,space,,,,,0,3,3,7,,,,,,,,,90.90393029999998,,,,,,,,,,,,,,,,,,,,,,,,,,,,,,,,,,,,,,,,,,,,,90.8405271,90.90393029999998,91.3555207,91.3555346,91.85484059999999,92.26599819999998,92.13874619999999,92.1387589,93.4568328,93.4568328,94.27135419999999,94.50646749999999,space,1,1.0375854000000118,None,,,,,,,,,,,,,,,,,,,,,,,,,,,,,,,,,,,,,,,,,,,,,,,,,,,,,,,,,,,,,,002,001,2023-11-11_13h32.29.525,untitled,2023.2.2,60.55809125741306,2023-11-11 13h32.58.287545 +0800,
2,condition_1/blank.PNG,space,,,,,0,4,4,9,,,,,,,,,94.5802778,,,,,,,,,,,,,,,,,,,,,,,,,,,,,,,,,,,,,,,,,,,,,94.50748469999999,94.5802778,95.0223497,95.02237339999999,95.52141040000001,95.9626926,95.80603299999999,95.80608749999999,97.12283009999999,97.12283009999999,,97.77246779999999,space,1,0.6461103999999978,None,,,,,,,,,,,,,,,,,,,,,,,,,,,,,,,,,,,,,,,,,,,,,,,,,,,,,,,,,,,,,,002,001,2023-11-11_13h32.29.525,untitled,2023.2.2,60.55809125741306,2023-11-11 13h32.58.287545 +0800,
2,condition_1/leftstar.PNG,left,,,,,0,5,5,22,,,,,,,,,97.8327612,,,,,,,,,,,,,,,,,,,,,,,,,,,,,,,,,,,,,,,,,,,,,97.7729041,97.8327612,98.28913209999999,98.28917049999998,98.7882205,99.3726308,99.07293849999999,99.0729695,100.39054949999999,100.39054949999999,101.2048747,101.4561908,left,1,1.0550595999999928,None,,,,,,,,,,,,,,,,,,,,,,,,,,,,,,,,,,,,,,,,,,,,,,,,,,,,,,,,,,,,,,002,001,2023-11-11_13h32.29.525,untitled,2023.2.2,60.55809125741306,2023-11-11 13h32.58.287545 +0800,
1,condition_1/leftstar.PNG,left,,,,,0,6,6,0,,,,,,,,,101.56055330000001,,,,,,,,,,,,,,,,,,,,,,,,,,,,,,,,,,,,,,,,,,,,,101.45718679999999,101.56055330000001,101.9724606,101.97248489999998,102.47152700000001,102.8783431,102.7557472,102.75577129999999,104.07361230000001,104.07361230000001,,104.35668899999999,left,1,0.2753932999999904,None,,,,,,,,,,,,,,,,,,,,,,,,,,,,,,,,,,,,,,,,,,,,,,,,,,,,,,,,,,,,,,002,001,2023-11-11_13h32.29.525,untitled,2023.2.2,60.55809125741306,2023-11-11 13h32.58.287545 +0800,
9,condition_1/leftstar.PNG,space,,,,,0,7,7,3,,,,,,,,,104.4106621,,,,,,,,,,,,,,,,,,,,,,,,,,,,,,,,,,,,,,,,,,,,,104.35766379999998,104.4106621,104.87230879999998,104.87233090000001,105.3718613,105.77765009999999,105.6557344,105.65575799999999,106.97361810000001,106.97361810000001,107.7882232,107.90640640000001,space,1,0.9254390000000114,None,,,,,,,,,,,,,,,,,,,,,,,,,,,,,,,,,,,,,,,,,,,,,,,,,,,,,,,,,,,,,,002,001,2023-11-11_13h32.29.525,untitled,2023.2.2,60.55809125741306,2023-11-11 13h32.58.287545 +0800,
8,condition_1/leftstar.PNG,space,,,,,0,8,8,2,,,,,,,,,107.95903770000001,,,,,,,,,,,,,,,,,,,,,,,,,,,,,,,,,,,,,,,,,,,,,107.90748439999999,107.95903770000001,108.4223948,108.42241899999999,108.92113950000001,109.3810291,109.20597609999999,109.2060711,110.5237343,110.5237343,111.33815200000001,111.8567592,space,1,1.3257078999999976,None,,,,,,,,,,,,,,,,,,,,,,,,,,,,,,,,,,,,,,,,,,,,,,,,,,,,,,,,,,,,,,002,001,2023-11-11_13h32.29.525,untitled,2023.2.2,60.55809125741306,2023-11-11 13h32.58.287545 +0800,
1,condition_1/rightstar.PNG,right,,,,,0,9,9,21,,,,,,,,,111.92416119999999,,,,,,,,,,,,,,,,,,,,,,,,,,,,,,,,,,,,,,,,,,,,,111.85785820000001,111.92416119999999,112.37236619999999,112.372389,112.8715417,113.27264869999999,113.1558603,113.1558833,114.4736916,114.4736916,115.2881898,115.57350929999998,right,1,1.0978192999999976,None,,,,,,,,,,,,,,,,,,,,,,,,,,,,,,,,,,,,,,,,,,,,,,,,,,,,,,,,,,,,,,002,001,2023-11-11_13h32.29.525,untitled,2023.2.2,60.55809125741306,2023-11-11 13h32.58.287545 +0800,
2,condition_1/leftstar.PNG,left,,,,,0,10,10,17,,,,,,,,,115.62927869999999,,,,,,,,,,,,,,,,,,,,,,,,,,,,,,,,,,,,,,,,,,,,,115.5745871,115.62927869999999,116.08912699999999,116.08916919999999,116.5882379,116.99048690000001,116.87308389999998,116.8731108,118.19040129999999,118.19040129999999,119.00480719999999,119.4063013,left,1,1.203064999999981,None,,,,,,,,,,,,,,,,,,,,,,,,,,,,,,,,,,,,,,,,,,,,,,,,,,,,,,,,,,,,,,002,001,2023-11-11_13h32.29.525,untitled,2023.2.2,60.55809125741306,2023-11-11 13h32.58.287545 +0800,
1,condition_1/leftstar.PNG,left,,,,,0,11,11,16,,,,,,,,,119.4613847,,,,,,,,,,,,,,,,,,,,,,,,,,,,,,,,,,,,,,,,,,,,,119.40740449999998,119.4613847,119.92235869999999,119.9223835,120.42156739999999,120.83571839999999,120.7057782,120.70580279999999,122.023662,122.023662,,122.47368879999999,left,1,0.4345544999999902,None,,,,,,,,,,,,,,,,,,,,,,,,,,,,,,,,,,,,,,,,,,,,,,,,,,,,,,,,,,,,,,002,001,2023-11-11_13h32.29.525,untitled,2023.2.2,60.55809125741306,2023-11-11 13h32.58.287545 +0800,
2,condition_1/leftstar.PNG,left,,,,,0,12,12,1,,,,,,,,,122.5279414,,,,,,,,,,,,,,,,,,,,,,,,,,,,,,,,,,,,,,,,,,,,,122.4747759,122.5279414,122.9890786,122.98910179999999,123.48824540000001,123.8982062,123.7725792,123.7726031,125.0904873,125.0904873,,125.64052659999999,left,1,0.5446421000000043,None,,,,,,,,,,,,,,,,,,,,,,,,,,,,,,,,,,,,,,,,,,,,,,,,,,,,,,,,,,,,,,002,001,2023-11-11_13h32.29.525,untitled,2023.2.2,60.55809125741306,2023-11-11 13h32.58.287545 +0800,
9,condition_1/leftstar.PNG,space,,,,,0,13,13,19,,,,,,,,,125.6960324,,,,,,,,,,,,,,,,,,,,,,,,,,,,,,,,,,,,,,,,,,,,,125.64156969999999,125.6960324,126.15550389999999,126.1555267,126.65495390000001,127.05554079999999,126.93923860000001,126.9392631,128.2569164,128.2569164,129.0714708,129.47296310000002,space,1,1.1995764000000122,None,,,,,,,,,,,,,,,,,,,,,,,,,,,,,,,,,,,,,,,,,,,,,,,,,,,,,,,,,,,,,,002,001,2023-11-11_13h32.29.525,untitled,2023.2.2,60.55809125741306,2023-11-11 13h32.58.287545 +0800,
9,condition_1/leftstar.PNG,space,,,,,0,14,14,24,,,,,,,,,129.52819340000002,,,,,,,,,,,,,,,,,,,,,,,,,,,,,,,,,,,,,,,,,,,,,129.4740706,129.52819340000002,129.98904520000002,129.98906749999998,130.4883132,130.89036850000002,130.772104,130.7721171,132.09044289999997,132.09044289999997,132.90473129999998,133.4234164,space,1,1.3230267999999796,None,,,,,,,,,,,,,,,,,,,,,,,,,,,,,,,,,,,,,,,,,,,,,,,,,,,,,,,,,,,,,,002,001,2023-11-11_13h32.29.525,untitled,2023.2.2,60.55809125741306,2023-11-11 13h32.58.287545 +0800,
9,condition_1/blank.PNG,space,,,,,0,15,15,11,,,,,,,,,133.4813942,,,,,,,,,,,,,,,,,,,,,,,,,,,,,,,,,,,,,,,,,,,,,133.42486350000001,133.4813942,133.9391428,133.9391857,134.4382753,134.850756,134.72244360000002,134.72246689999997,136.03944719999998,136.03944719999998,136.83816330000002,138.00653419999998,space,1,1.9520176000000333,None,,,,,,,,,,,,,,,,,,,,,,,,,,,,,,,,,,,,,,,,,,,,,,,,,,,,,,,,,,,,,,002,001,2023-11-11_13h32.29.525,untitled,2023.2.2,60.55809125741306,2023-11-11 13h32.58.287545 +0800,
2,condition_1/blank.PNG,space,,,,,0,16,16,20,,,,,,,,,138.06297669999998,,,,,,,,,,,,,,,,,,,,,,,,,,,,,,,,,,,,,,,,,,,,,138.0075865,138.06297669999998,138.5223772,138.522401,139.02157139999997,139.3465202,139.30596680000002,139.30604720000002,140.62280859999998,140.62280859999998,141.4214611,142.4562689,space,1,1.8263760000000389,None,,,,,,,,,,,,,,,,,,,,,,,,,,,,,,,,,,,,,,,,,,,,,,,,,,,,,,,,,,,,,,002,001,2023-11-11_13h32.29.525,untitled,2023.2.2,60.55809125741306,2023-11-11 13h32.58.287545 +0800,
1,condition_1/rightstar.PNG,right,,,,,0,17,17,4,,,,,,,,,142.512111,,,,,,,,,,,,,,,,,,,,,,,,,,,,,,,,,,,,,,,,,,,,,142.45737279999997,142.512111,142.9724208,142.9724427,143.47145819999997,143.9666494,143.7558322,143.75586099999998,145.07364080000002,145.07364080000002,145.88831169999997,145.92369430000002,right,1,0.8482468999999924,None,,,,,,,,,,,,,,,,,,,,,,,,,,,,,,,,,,,,,,,,,,,,,,,,,,,,,,,,,,,,,,002,001,2023-11-11_13h32.29.525,untitled,2023.2.2,60.55809125741306,2023-11-11 13h32.58.287545 +0800,
1,condition_1/rightstar.PNG,right,,,,,0,18,18,12,,,,,,,,,145.99210010000002,,,,,,,,,,,,,,,,,,,,,,,,,,,,,,,,,,,,,,,,,,,,,145.9247696,145.99210010000002,146.4393826,146.4394049,146.93837079999997,147.3567324,147.2224519,147.2224774,148.54017670000002,148.54017670000002,149.35513759999998,149.6563544,right,1,1.10708139999997,None,,,,,,,,,,,,,,,,,,,,,,,,,,,,,,,,,,,,,,,,,,,,,,,,,,,,,,,,,,,,,,002,001,2023-11-11_13h32.29.525,untitled,2023.2.2,60.55809125741306,2023-11-11 13h32.58.287545 +0800,
8,condition_1/rightstar.PNG,space,,,,,0,19,19,23,,,,,,,,,149.7465977,,,,,,,,,,,,,,,,,,,,,,,,,,,,,,,,,,,,,,,,,,,,,149.65753560000002,149.7465977,150.1722767,150.17229939999999,150.67156719999997,151.1028637,150.95578899999998,150.95581249999998,152.27389490000002,152.27389490000002,153.0881266,153.9730419,space,1,1.6881071999999904,None,,,,,,,,,,,,,,,,,,,,,,,,,,,,,,,,,,,,,,,,,,,,,,,,,,,,,,,,,,,,,,002,001,2023-11-11_13h32.29.525,untitled,2023.2.2,60.55809125741306,2023-11-11 13h32.58.287545 +0800,
2,condition_1/rightstar.PNG,left,,,,,0,20,20,5,,,,,,,,,154.02768650000002,,,,,,,,,,,,,,,,,,,,,,,,,,,,,,,,,,,,,,,,,,,,,153.97411110000002,154.02768650000002,154.4889763,154.48900020000002,154.9881904,155.39790299999999,155.2726702,155.27269819999998,156.59026790000001,156.59026790000001,157.4049061,157.8075412,right,0,1.2128392999999846,None,,,,,,,,,,,,,,,,,,,,,,,,,,,,,,,,,,,,,,,,,,,,,,,,,,,,,,,,,,,,,,002,001,2023-11-11_13h32.29.525,untitled,2023.2.2,60.55809125741306,2023-11-11 13h32.58.287545 +0800,
1,condition_1/blank.PNG,space,,,,,0,21,21,8,,,,,,,,,157.8605667,,,,,,,,,,,,,,,,,,,,,,,,,,,,,,,,,,,,,,,,,,,,,157.80901089999998,157.8605667,158.32278179999997,158.3228127,158.8215212,159.24693050000002,159.10593790000001,159.10596370000002,160.42295940000002,160.42295940000002,161.2216226,161.90635199999997,space,1,1.4690954000000147,None,,,,,,,,,,,,,,,,,,,,,,,,,,,,,,,,,,,,,,,,,,,,,,,,,,,,,,,,,,,,,,002,001,2023-11-11_13h32.29.525,untitled,2023.2.2,60.55809125741306,2023-11-11 13h32.58.287545 +0800,
2,condition_1/rightstar.PNG,right,,,,,0,22,22,13,,,,,,,,,161.9621778,,,,,,,,,,,,,,,,,,,,,,,,,,,,,,,,,,,,,,,,,,,,,161.90741250000002,161.9621778,162.42260699999997,162.4226304,162.9216856,163.41930580000002,163.2058596,163.20588600000002,164.5239681,164.5239681,165.33834689999998,165.70656300000002,right,1,1.177833000000021,None,,,,,,,,,,,,,,,,,,,,,,,,,,,,,,,,,,,,,,,,,,,,,,,,,,,,,,,,,,,,,,002,001,2023-11-11_13h32.29.525,untitled,2023.2.2,60.55809125741306,2023-11-11 13h32.58.287545 +0800,
9,condition_1/rightstar.PNG,space,,,,,0,23,23,15,,,,,,,,,165.76357939999997,,,,,,,,,,,,,,,,,,,,,,,,,,,,,,,,,,,,,,,,,,,,,165.70760819999998,165.76357939999997,166.2225661,166.2226003,166.72178580000002,167.1280476,167.0059159,167.0059404,168.32340269999997,168.32340269999997,169.1380985,169.8233781,space,1,1.4859369000000129,None,,,,,,,,,,,,,,,,,,,,,,,,,,,,,,,,,,,,,,,,,,,,,,,,,,,,,,,,,,,,,,002,001,2023-11-11_13h32.29.525,untitled,2023.2.2,60.55809125741306,2023-11-11 13h32.58.287545 +0800,
8,condition_1/blank.PNG,space,,,,,0,24,24,10,,,,,,,,,169.9145775,,,,,,,,,,,,,,,,,,,,,,,,,,,,,,,,,,,,,,,,,,,,,169.8242798,169.9145775,170.33895669999998,170.3389808,170.8381215,171.21984659999998,171.12256229999997,171.12258659999998,172.43950890000002,172.43950890000002,173.2383471,173.68996449999997,space,1,1.2337387000000035,None,,,,,,,,,,,,,,,,,,,,,,,,,,,,,,,,,,,,,,,,,,,,,,,,,,,,,,,,,,,,,,002,001,2023-11-11_13h32.29.525,untitled,2023.2.2,60.55809125741306,2023-11-11 13h32.58.287545 +0800,
1,condition_1/leftstar.PNG,left,,,,,1,0,25,0,,,,,,,,,173.76004769999997,,,,,,,,,,,,,,,,,,,,,,,,,,,,,,,,,,,,,,,,,,,,,173.6909127,173.76004769999997,174.2055783,174.20560189999998,174.70488310000002,175.284983,174.98920449999997,174.98923459999997,176.30704809999997,176.30704809999997,177.12163929999997,177.3730819,left,1,1.059421499999985,None,,,,,,,,,,,,,,,,,,,,,,,,,,,,,,,,,,,,,,,,,,,,,,,,,,,,,,,,,,,,,,002,001,2023-11-11_13h32.29.525,untitled,2023.2.2,60.55809125741306,2023-11-11 13h32.58.287545 +0800,
2,condition_1/leftstar.PNG,left,,,,,1,1,26,22,,,,,,,,,177.4514507,,,,,,,,,,,,,,,,,,,,,,,,,,,,,,,,,,,,,,,,,,,,,177.37410849999998,177.4514507,177.88914490000002,177.8891688,178.3882615,178.81585359999997,178.67256809999998,178.6725927,179.9904093,179.9904093,180.80484080000002,181.1064738,left,1,1.098802399999954,None,,,,,,,,,,,,,,,,,,,,,,,,,,,,,,,,,,,,,,,,,,,,,,,,,,,,,,,,,,,,,,002,001,2023-11-11_13h32.29.525,untitled,2023.2.2,60.55809125741306,2023-11-11 13h32.58.287545 +0800,
9,condition_1/rightstar.PNG,space,,,,,1,2,27,7,,,,,,,,,181.16437150000002,,,,,,,,,,,,,,,,,,,,,,,,,,,,,,,,,,,,,,,,,,,,,181.1076076,181.16437150000002,181.62255629999999,181.6225796,182.12151769999997,182.53887179999998,182.405984,182.4060152,183.7237434,183.7237434,184.53817349999997,185.04006729999998,space,1,1.3020435999999904,None,,,,,,,,,,,,,,,,,,,,,,,,,,,,,,,,,,,,,,,,,,,,,,,,,,,,,,,,,,,,,,002,001,2023-11-11_13h32.29.525,untitled,2023.2.2,60.55809125741306,2023-11-11 13h32.58.287545 +0800,
9,condition_1/leftstar.PNG,space,,,,,1,3,28,19,,,,,,,,,185.0953857,,,,,,,,,,,,,,,,,,,,,,,,,,,,,,,,,,,,,,,,,,,,,185.0411863,185.0953857,185.55551709999997,185.55552840000001,186.05492499999997,186.45662670000002,186.33914959999998,186.3391739,187.6568618,187.6568618,188.47151359999998,188.8566058,space,1,1.1950470999999538,None,,,,,,,,,,,,,,,,,,,,,,,,,,,,,,,,,,,,,,,,,,,,,,,,,,,,,,,,,,,,,,002,001,2023-11-11_13h32.29.525,untitled,2023.2.2,60.55809125741306,2023-11-11 13h32.58.287545 +0800,
2,condition_1/blank.PNG,space,,,,,1,4,29,20,,,,,,,,,188.91734430000002,,,,,,,,,,,,,,,,,,,,,,,,,,,,,,,,,,,,,,,,,,,,,188.8576582,188.91734430000002,189.3722525,189.37227560000002,189.8715355,190.305299,190.1554233,190.1554428,191.47276519999997,191.47276519999997,,192.1730771,space,1,0.6862773000000288,None,,,,,,,,,,,,,,,,,,,,,,,,,,,,,,,,,,,,,,,,,,,,,,,,,,,,,,,,,,,,,,002,001,2023-11-11_13h32.29.525,untitled,2023.2.2,60.55809125741306,2023-11-11 13h32.58.287545 +0800,
1,condition_1/blank.PNG,space,,,,,1,5,30,8,,,,,,,,,192.2289068,,,,,,,,,,,,,,,,,,,,,,,,,,,,,,,,,,,,,,,,,,,,,192.1734867,192.2289068,192.68891680000002,192.68894039999998,193.18824940000002,193.52245240000002,193.47251870000002,193.4725439,194.7894915,194.7894915,195.5882985,195.5899308,space,1,0.7926655999999639,None,,,,,,,,,,,,,,,,,,,,,,,,,,,,,,,,,,,,,,,,,,,,,,,,,,,,,,,,,,,,,,002,001,2023-11-11_13h32.29.525,untitled,2023.2.2,60.55809125741306,2023-11-11 13h32.58.287545 +0800,
9,condition_1/leftstar.PNG,space,,,,,1,6,31,3,,,,,,,,,195.64381509999998,,,,,,,,,,,,,,,,,,,,,,,,,,,,,,,,,,,,,,,,,,,,,195.5910748,195.64381509999998,196.1054434,196.10546419999997,196.6049445,197.1593879,196.8886878,196.88870880000002,198.2070857,198.2070857,199.02125510000002,199.3223704,space,1,1.1104771999999912,None,,,,,,,,,,,,,,,,,,,,,,,,,,,,,,,,,,,,,,,,,,,,,,,,,,,,,,,,,,,,,,002,001,2023-11-11_13h32.29.525,untitled,2023.2.2,60.55809125741306,2023-11-11 13h32.58.287545 +0800,
8,condition_1/rightstar.PNG,space,,,,,1,7,32,6,,,,,,,,,199.3836412,,,,,,,,,,,,,,,,,,,,,,,,,,,,,,,,,,,,,,,,,,,,,199.32277729999998,199.3836412,199.8389092,199.8389229,200.3381561,200.7655985,200.6225816,200.622612,201.94043570000002,201.94043570000002,202.75485279999998,203.5068311,space,1,1.5647567999999978,None,,,,,,,,,,,,,,,,,,,,,,,,,,,,,,,,,,,,,,,,,,,,,,,,,,,,,,,,,,,,,,002,001,2023-11-11_13h32.29.525,untitled,2023.2.2,60.55809125741306,2023-11-11 13h32.58.287545 +0800,
9,condition_1/blank.PNG,space,,,,,1,8,33,11,,,,,,,,,203.56823889999998,,,,,,,,,,,,,,,,,,,,,,,,,,,,,,,,,,,,,,,,,,,,,203.5079015,203.56823889999998,204.02233289999998,204.0223573,204.52160859999998,204.90588409999998,204.8059113,204.8059429,206.1227055,206.1227055,206.92157129999998,207.6398701,space,1,1.5079435000000103,None,,,,,,,,,,,,,,,,,,,,,,,,,,,,,,,,,,,,,,,,,,,,,,,,,,,,,,,,,,,,,,002,001,2023-11-11_13h32.29.525,untitled,2023.2.2,60.55809125741306,2023-11-11 13h32.58.287545 +0800,
9,condition_1/rightstar.PNG,space,,,,,1,9,34,15,,,,,,,,,207.69491069999998,,,,,,,,,,,,,,,,,,,,,,,,,,,,,,,,,,,,,,,,,,,,,207.64088959999998,207.69491069999998,208.1557998,208.15583370000002,208.6548902,209.21654940000002,208.93887039999998,208.93888629999998,210.25705749999997,210.25705749999997,211.07152709999997,211.37308819999998,space,1,1.1104923999999983,None,,,,,,,,,,,,,,,,,,,,,,,,,,,,,,,,,,,,,,,,,,,,,,,,,,,,,,,,,,,,,,002,001,2023-11-11_13h32.29.525,untitled,2023.2.2,60.55809125741306,2023-11-11 13h32.58.287545 +0800,
2,condition_1/blank.PNG,space,,,,,1,10,35,9,,,,,,,,,211.44840699999997,,,,,,,,,,,,,,,,,,,,,,,,,,,,,,,,,,,,,,,,,,,,,211.37415900000002,211.44840699999997,211.8886442,211.8886609,212.3882324,212.75333590000002,212.67300469999998,212.6730346,213.98938069999997,213.98938069999997,214.7882952,215.07303989999997,space,1,1.067447799999968,None,,,,,,,,,,,,,,,,,,,,,,,,,,,,,,,,,,,,,,,,,,,,,,,,,,,,,,,,,,,,,,002,001,2023-11-11_13h32.29.525,untitled,2023.2.2,60.55809125741306,2023-11-11 13h32.58.287545 +0800,
1,condition_1/rightstar.PNG,right,,,,,1,11,36,12,,,,,,,,,215.1232882,,,,,,,,,,,,,,,,,,,,,,,,,,,,,,,,,,,,,,,,,,,,,215.0740783,215.1232882,215.58894800000002,215.5889899,216.08838930000002,216.62030520000002,216.37270510000002,216.3727359,217.69021750000002,217.69021750000002,218.50491549999998,218.8068904,right,1,1.10481139999996,None,,,,,,,,,,,,,,,,,,,,,,,,,,,,,,,,,,,,,,,,,,,,,,,,,,,,,,,,,,,,,,002,001,2023-11-11_13h32.29.525,untitled,2023.2.2,60.55809125741306,2023-11-11 13h32.58.287545 +0800,
8,condition_1/rightstar.PNG,space,,,,,1,12,37,14,,,,,,,,,218.8647125,,,,,,,,,,,,,,,,,,,,,,,,,,,,,,,,,,,,,,,,,,,,,218.8079844,218.8647125,219.3224222,219.32246070000002,219.82152150000002,220.23654349999998,220.10586690000002,220.10589269999997,221.4238198,221.4238198,222.23820059999997,222.52316009999998,space,1,1.0892243000000121,None,,,,,,,,,,,,,,,,,,,,,,,,,,,,,,,,,,,,,,,,,,,,,,,,,,,,,,,,,,,,,,002,001,2023-11-11_13h32.29.525,untitled,2023.2.2,60.55809125741306,2023-11-11 13h32.58.287545 +0800,
2,condition_1/leftstar.PNG,left,,,,,1,13,38,17,,,,,,,,,222.5879283,,,,,,,,,,,,,,,,,,,,,,,,,,,,,,,,,,,,,,,,,,,,,222.52438719999998,222.5879283,223.0389852,223.0390213,223.5383369,223.9846237,223.82311370000002,223.82314309999998,225.1410652,225.1410652,225.9547106,226.3398762,left,1,1.1963216999999986,None,,,,,,,,,,,,,,,,,,,,,,,,,,,,,,,,,,,,,,,,,,,,,,,,,,,,,,,,,,,,,,002,001,2023-11-11_13h32.29.525,untitled,2023.2.2,60.55809125741306,2023-11-11 13h32.58.287545 +0800,
9,condition_1/leftstar.PNG,space,,,,,1,14,39,24,,,,,,,,,226.3943772,,,,,,,,,,,,,,,,,,,,,,,,,,,,,,,,,,,,,,,,,,,,,226.3409572,226.3943772,226.85557590000002,226.8556079,227.3548616,227.7567232,227.63914019999999,227.63916619999998,228.95686310000002,228.95686310000002,229.7716219,230.1569189,space,1,1.1984404000000382,None,,,,,,,,,,,,,,,,,,,,,,,,,,,,,,,,,,,,,,,,,,,,,,,,,,,,,,,,,,,,,,002,001,2023-11-11_13h32.29.525,untitled,2023.2.2,60.55809125741306,2023-11-11 13h32.58.287545 +0800,
1,condition_1/rightstar.PNG,right,,,,,1,15,40,4,,,,,,,,,230.26828310000002,,,,,,,,,,,,,,,,,,,,,,,,,,,,,,,,,,,,,,,,,,,,,230.15803699999998,230.26828310000002,230.67244929999998,230.6724812,231.17174719999997,231.5992508,231.45576160000002,231.45578540000002,232.7736675,232.7736675,,233.24005970000002,right,1,0.4492726000000289,None,,,,,,,,,,,,,,,,,,,,,,,,,,,,,,,,,,,,,,,,,,,,,,,,,,,,,,,,,,,,,,002,001,2023-11-11_13h32.29.525,untitled,2023.2.2,60.55809125741306,2023-11-11 13h32.58.287545 +0800,
8,condition_1/blank.PNG,space,,,,,1,16,41,10,,,,,,,,,233.29475100000002,,,,,,,,,,,,,,,,,,,,,,,,,,,,,,,,,,,,,,,,,,,,,233.24108109999997,233.29475100000002,233.75570240000002,233.75573789999999,234.2548868,234.66436069999997,234.53920970000001,234.5392357,235.85618879999998,235.85618879999998,,236.5253637,space,1,0.6534674999999766,None,,,,,,,,,,,,,,,,,,,,,,,,,,,,,,,,,,,,,,,,,,,,,,,,,,,,,,,,,,,,,,002,001,2023-11-11_13h32.29.525,untitled,2023.2.2,60.55809125741306,2023-11-11 13h32.58.287545 +0800,
2,condition_1/rightstar.PNG,right,,,,,1,17,42,13,,,,,,,,,236.5750805,,,,,,,,,,,,,,,,,,,,,,,,,,,,,,,,,,,,,,,,,,,,,236.52639190000002,236.5750805,237.03886440000002,237.03888589999997,237.5382788,238.0574952,237.8229563,237.82298500000002,239.1403919,239.1403919,,239.87379829999998,right,1,0.717988900000023,None,,,,,,,,,,,,,,,,,,,,,,,,,,,,,,,,,,,,,,,,,,,,,,,,,,,,,,,,,,,,,,002,001,2023-11-11_13h32.29.525,untitled,2023.2.2,60.55809125741306,2023-11-11 13h32.58.287545 +0800,
1,condition_1/leftstar.PNG,left,,,,,1,18,43,16,,,,,,,,,239.9284063,,,,,,,,,,,,,,,,,,,,,,,,,,,,,,,,,,,,,,,,,,,,,239.8748195,239.9284063,240.3890323,240.3891332,240.88823609999997,241.2927891,241.1727255,241.1727545,242.49035679999997,242.49035679999997,,243.12350909999998,left,1,0.6164102000000184,None,,,,,,,,,,,,,,,,,,,,,,,,,,,,,,,,,,,,,,,,,,,,,,,,,,,,,,,,,,,,,,002,001,2023-11-11_13h32.29.525,untitled,2023.2.2,60.55809125741306,2023-11-11 13h32.58.287545 +0800,
1,condition_1/rightstar.PNG,right,,,,,1,19,44,21,,,,,,,,,243.1805887,,,,,,,,,,,,,,,,,,,,,,,,,,,,,,,,,,,,,,,,,,,,,243.12452209999998,243.1805887,243.6391443,243.63918189999998,244.1383111,244.5500055,244.4226865,244.4227116,245.74027539999997,245.74027539999997,,246.4574109,right,1,0.7079120999999873,None,,,,,,,,,,,,,,,,,,,,,,,,,,,,,,,,,,,,,,,,,,,,,,,,,,,,,,,,,,,,,,002,001,2023-11-11_13h32.29.525,untitled,2023.2.2,60.55809125741306,2023-11-11 13h32.58.287545 +0800,
8,condition_1/leftstar.PNG,space,,,,,1,20,45,2,,,,,,,,,246.52821749999998,,,,,,,,,,,,,,,,,,,,,,,,,,,,,,,,,,,,,,,,,,,,,246.4584107,246.52821749999998,246.97240269999998,246.972425,247.47152499999999,247.9268143,247.7557425,247.755766,249.0737266,249.0737266,249.888259,250.0227309,space,1,0.9340179000000148,None,,,,,,,,,,,,,,,,,,,,,,,,,,,,,,,,,,,,,,,,,,,,,,,,,,,,,,,,,,,,,,002,001,2023-11-11_13h32.29.525,untitled,2023.2.2,60.55809125741306,2023-11-11 13h32.58.287545 +0800,
8,condition_1/rightstar.PNG,space,,,,,1,21,46,23,,,,,,,,,250.08153699999997,,,,,,,,,,,,,,,,,,,,,,,,,,,,,,,,,,,,,,,,,,,,,250.0237237,250.08153699999997,250.5390152,250.53905079999998,251.03816460000002,251.4354414,251.322539,251.3225683,252.64053669999998,252.64053669999998,253.45483689999998,253.8396927,space,1,1.1943802999999775,None,,,,,,,,,,,,,,,,,,,,,,,,,,,,,,,,,,,,,,,,,,,,,,,,,,,,,,,,,,,,,,002,001,2023-11-11_13h32.29.525,untitled,2023.2.2,60.55809125741306,2023-11-11 13h32.58.287545 +0800,
8,condition_1/leftstar.PNG,space,,,,,1,22,47,18,,,,,,,,,253.8884435,,,,,,,,,,,,,,,,,,,,,,,,,,,,,,,,,,,,,,,,,,,,,253.8407623,253.8884435,254.3557773,254.3558177,254.85488759999998,255.25958229999998,255.1396307,255.13966449999998,256.456903,256.456903,257.2715543,257.6064412,space,1,1.1329820999999924,None,,,,,,,,,,,,,,,,,,,,,,,,,,,,,,,,,,,,,,,,,,,,,,,,,,,,,,,,,,,,,,002,001,2023-11-11_13h32.29.525,untitled,2023.2.2,60.55809125741306,2023-11-11 13h32.58.287545 +0800,
2,condition_1/rightstar.PNG,left,,,,,1,23,48,5,,,,,,,,,257.659591,,,,,,,,,,,,,,,,,,,,,,,,,,,,,,,,,,,,,,,,,,,,,257.6075778,257.659591,258.1221666,258.1221885,258.6214481,259.0289293,258.9056445,258.9056698,260.2237529,260.2237529,261.0382019,261.7564562,right,0,1.5154026000000158,None,,,,,,,,,,,,,,,,,,,,,,,,,,,,,,,,,,,,,,,,,,,,,,,,,,,,,,,,,,,,,,002,001,2023-11-11_13h32.29.525,untitled,2023.2.2,60.55809125741306,2023-11-11 13h32.58.287545 +0800,
2,condition_1/leftstar.PNG,left,,,,,1,24,49,1,,,,,,,,,261.8102819,,,,,,,,,,,,,,,,,,,,,,,,,,,,,,,,,,,,,,,,,,,,,261.7575453,261.8102819,262.2724657,262.2724884,262.7716357,263.2504207,263.0554837,263.0554957,264.373641,264.373641,265.18818219999997,265.5896927,left,1,1.2070802999999728,None,,,,,,,,,,,,,,,,,,,,,,,,,,,,,,,,,,,,,,,,,,,,,,,,,,,,,,,,,,,,,,002,001,2023-11-11_13h32.29.525,untitled,2023.2.2,60.55809125741306,2023-11-11 13h32.58.287545 +0800,
,,,,,,,,,,,,,,,,,,,,,,,,,,,,,,,,,,,,,,,,,,,,,,,,,,,,,,,,,,,,,,,,,,,,,,,,,,,,,,,,265.5903988,265.6048647,265.6048647,267.7568915,space,2.137979199999961,None,,,,,,,,,,,,,,,,,,,,,,,,,,,,,,,,,,,,,,,,,,,,,,,,,,,,,,,002,001,2023-11-11_13h32.29.525,untitled,2023.2.2,60.55809125741306,2023-11-11 13h32.58.287545 +0800,
,,,,,,,,,,,,,,,,,,,,,,,,,,,,,,,,,,,,,,,,,,,,,,,,,,,,,,,,,,,,,,,,,,,,,,,,,,,,,,,,,,,,,,,267.7569713,267.7879368,267.7879368,290.5413665,space,22.750806499999953,None,,,,,,,,,,,,,,,,,,,,,,,,,,,,,,,,,,,,,,,,,,,,,,,,002,001,2023-11-11_13h32.29.525,untitled,2023.2.2,60.55809125741306,2023-11-11 13h32.58.287545 +0800,
1,test2/leftstar.PNG,space,,,,,,,,,0,0,0,0,,,,,290.6841667,,,,,,,,,,,,,,,,,,,,,,,,,,,,,,,,,,,,,,,,,,,,,,,,,,,,,,,,,,,,,,,,,,,,,,,,,,,290.549786,290.6841667,291.0556765,291.0557237,291.55490629999997,292.16709099999997,291.83902009999997,291.8390463,293.1711191,293.1711191,293.9715164,295.15619,space,1.9703524000000243,None,,,,,,,,,,,,,,,,,,,,,,,,,,,,,,,,,002,001,2023-11-11_13h32.29.525,untitled,2023.2.2,60.55809125741306,2023-11-11 13h32.58.287545 +0800,
8,test2/rightstar.PNG,right,,,,,,,,,0,1,1,1,,,,,295.2111397,,,,,,,,,,,,,,,,,,,,,,,,,,,,,,,,,,,,,,,,,,,,,,,,,,,,,,,,,,,,,,,,,,,,,,,,,,,295.1575897,295.2111397,295.6721375,295.6721615,296.1714725,296.6307897,296.45591,296.4559414,297.7736542,297.7736542,298.588193,298.6894954,right,0.9048988000000122,None,,,,,,,,,,,,,,,,,,,,,,,,,,,,,,,,,002,001,2023-11-11_13h32.29.525,untitled,2023.2.2,60.55809125741306,2023-11-11 13h32.58.287545 +0800,
2,test2/leftstar.PNG,space,,,,,,,,,0,2,2,4,,,,,298.7437107,,,,,,,,,,,,,,,,,,,,,,,,,,,,,,,,,,,,,,,,,,,,,,,,,,,,,,,,,,,,,,,,,,,,,,,,,,,298.6903936,298.7437107,299.2053887,299.2054236,299.7048353,300.1047163,299.9891556,299.9891812,301.3071226,301.3071226,302.1215515,302.4731998,left,1.1599996999999576,None,,,,,,,,,,,,,,,,,,,,,,,,,,,,,,,,,002,001,2023-11-11_13h32.29.525,untitled,2023.2.2,60.55809125741306,2023-11-11 13h32.58.287545 +0800,
9,test2/rightstar.PNG,right,,,,,,,,,0,3,3,3,,,,,302.54184779999997,,,,,,,,,,,,,,,,,,,,,,,,,,,,,,,,,,,,,,,,,,,,,,,,,,,,,,,,,,,,,,,,,,,,,,,,,,,302.4741024,302.54184779999997,302.9887283,302.9887608,303.4883378,303.8850647,303.7723525,303.7723765,305.0902392,305.0902392,,305.6066073,right,0.5019692999999847,None,,,,,,,,,,,,,,,,,,,,,,,,,,,,,,,,,002,001,2023-11-11_13h32.29.525,untitled,2023.2.2,60.55809125741306,2023-11-11 13h32.58.287545 +0800,
8,test2/leftstar.PNG,left,,,,,,,,,0,4,4,5,,,,,305.6536563,,,,,,,,,,,,,,,,,,,,,,,,,,,,,,,,,,,,,,,,,,,,,,,,,,,,,,,,,,,,,,,,,,,,,,,,,,,305.6073905,305.6536563,306.1221269,306.1221638,306.6215582,307.0247954,306.9057623,306.9057889,308.223714,308.223714,309.0382775,309.3068491,left,1.0658819000000221,None,,,,,,,,,,,,,,,,,,,,,,,,,,,,,,,,,002,001,2023-11-11_13h32.29.525,untitled,2023.2.2,60.55809125741306,2023-11-11 13h32.58.287545 +0800,
1,test2/blank.PNG,space,,,,,,,,,0,5,5,2,,,,,309.3600932,,,,,,,,,,,,,,,,,,,,,,,,,,,,,,,,,,,,,,,,,,,,,,,,,,,,,,,,,,,,,,,,,,,,,,,,,,,309.3079771,309.3600932,309.8224628,309.8225405,310.32154049999997,310.8152462,310.6057596,310.6057835,311.9227434,311.9227434,,312.4739178,space,0.5391285000000039,None,,,,,,,,,,,,,,,,,,,,,,,,,,,,,,,,,002,001,2023-11-11_13h32.29.525,untitled,2023.2.2,60.55809125741306,2023-11-11 13h32.58.287545 +0800,
,,,,,,,,,,,,,,,,,,,,,,,,,,,,,,,,,,,,,,,,,,,,,,,,,,,,,,,,,,,,,,,,,,,,,,,,,,,,,,,,,,,,,,,,,,,,,,,,,,,,,,,,,,,,,312.47463319999997,312.4910949,312.4910949,313.5049566,313.6406198,space,1.1389380999999617,None,,,,,,,,,,,,,,,,,,,,,,,,,002,001,2023-11-11_13h32.29.525,untitled,2023.2.2,60.55809125741306,2023-11-11 13h32.58.287545 +0800,
,,,,,,,,,,,,,,,,,,,,,,,,,,,,,,,,,,,,,,,,,,,,,,,,,,,,,,,,,,,,,,,,,,,,,,,,,,,,,,,,,,,,,,,,,,,,,,,,,,,,,,,,,,,,,,,,,,,,,313.6407081,313.661295,313.661295,314.6715616,318.0731183,space,4.4039487999999665,None,,,,,,,,,,,,,,,,,002,001,2023-11-11_13h32.29.525,untitled,2023.2.2,60.55809125741306,2023-11-11 13h32.58.287545 +0800,
1,condition_2/blank.PNG,space,,,,,,,,,,,,,0,0,0,8,318.1491496,,,,,,,,,,,,,,,,,,,,,,,,,,,,,,,,,,,,,,,,,,,,,,,,,,,,,,,,,,,,,,,,,,,,,,,,,,,,,,,,,,,,,,,,,,,,,,,,,,,,,,,,,,318.0969342,318.1491496,318.5891681,318.5892147,319.0883561,319.4083924,319.3725356,319.3725612,320.6896235,320.6896235,321.4881717,321.7731559,space,1,1.0747580000000312,None,002,001,2023-11-11_13h32.29.525,untitled,2023.2.2,60.55809125741306,2023-11-11 13h32.58.287545 +0800,
1,condition_2/leftstar.PNG,space,,,,,,,,,,,,,0,1,1,0,321.8375279,,,,,,,,,,,,,,,,,,,,,,,,,,,,,,,,,,,,,,,,,,,,,,,,,,,,,,,,,,,,,,,,,,,,,,,,,,,,,,,,,,,,,,,,,,,,,,,,,,,,,,,,,,321.7747034,321.8375279,322.2889023,322.2889373,322.7884262,323.3964701,323.0725699,323.0725972,324.390465,324.390465,325.2048631,325.4895438,space,1,1.0911632000000395,None,002,001,2023-11-11_13h32.29.525,untitled,2023.2.2,60.55809125741306,2023-11-11 13h32.58.287545 +0800,
9,condition_2/leftstar.PNG,left,,,,,,,,,,,,,0,2,2,3,325.544615,,,,,,,,,,,,,,,,,,,,,,,,,,,,,,,,,,,,,,,,,,,,,,,,,,,,,,,,,,,,,,,,,,,,,,,,,,,,,,,,,,,,,,,,,,,,,,,,,,,,,,,,,,325.4906303,325.544615,326.0056612,326.0056868,326.5049996,326.903406,326.7892643,326.7893321,328.1072,328.1072,328.9211916,329.1062518,left,1,0.9863454000000047,None,002,001,2023-11-11_13h32.29.525,untitled,2023.2.2,60.55809125741306,2023-11-11 13h32.58.287545 +0800,
1,condition_2/rightstar.PNG,space,,,,,,,,,,,,,0,3,3,4,329.1616095,,,,,,,,,,,,,,,,,,,,,,,,,,,,,,,,,,,,,,,,,,,,,,,,,,,,,,,,,,,,,,,,,,,,,,,,,,,,,,,,,,,,,,,,,,,,,,,,,,,,,,,,,,329.1072949,329.1616095,329.6222791,329.6223065,330.1215273,330.6046786,330.4058423,330.4058809,331.7234888,331.7234888,,332.3574568,space,1,0.6183630000000448,None,002,001,2023-11-11_13h32.29.525,untitled,2023.2.2,60.55809125741306,2023-11-11 13h32.58.287545 +0800,
8,condition_2/leftstar.PNG,left,,,,,,,,,,,,,0,4,4,2,332.4087293,,,,,,,,,,,,,,,,,,,,,,,,,,,,,,,,,,,,,,,,,,,,,,,,,,,,,,,,,,,,,,,,,,,,,,,,,,,,,,,,,,,,,,,,,,,,,,,,,,,,,,,,,,332.3585543,332.4087293,332.8725327,332.8725711,333.3715606,333.7869858,333.6559314,333.655959,334.9737601,334.9737601,335.78816919999997,336.0229895,left,1,1.0405978000000005,None,002,001,2023-11-11_13h32.29.525,untitled,2023.2.2,60.55809125741306,2023-11-11 13h32.58.287545 +0800,
1,condition_2/rightstar.PNG,space,,,,,,,,,,,,,0,5,5,12,336.0778651,,,,,,,,,,,,,,,,,,,,,,,,,,,,,,,,,,,,,,,,,,,,,,,,,,,,,,,,,,,,,,,,,,,,,,,,,,,,,,,,,,,,,,,,,,,,,,,,,,,,,,,,,,336.0241212,336.0778651,336.5390361,336.5390738,337.0382788,337.450681,337.3225864,337.3226315,338.6402252,338.6402252,339.4548419,339.956342,right,0,1.3125703000000044,None,002,001,2023-11-11_13h32.29.525,untitled,2023.2.2,60.55809125741306,2023-11-11 13h32.58.287545 +0800,
8,condition_2/blank.PNG,space,,,,,,,,,,,,,0,6,6,24,340.0083997,,,,,,,,,,,,,,,,,,,,,,,,,,,,,,,,,,,,,,,,,,,,,,,,,,,,,,,,,,,,,,,,,,,,,,,,,,,,,,,,,,,,,,,,,,,,,,,,,,,,,,,,,,339.9573959,340.0083997,340.47232329999997,340.47235059999997,340.9715974,341.4074637,341.2558868,341.25591479999997,342.5728843,342.5728843,343.3715801,344.1231239,space,1,1.5403921999999852,None,002,001,2023-11-11_13h32.29.525,untitled,2023.2.2,60.55809125741306,2023-11-11 13h32.58.287545 +0800,
9,condition_2/rightstar.PNG,right,,,,,,,,,,,,,0,7,7,7,344.1794825,,,,,,,,,,,,,,,,,,,,,,,,,,,,,,,,,,,,,,,,,,,,,,,,,,,,,,,,,,,,,,,,,,,,,,,,,,,,,,,,,,,,,,,,,,,,,,,,,,,,,,,,,,344.1243275,344.1794825,344.6391767,344.6392176,345.1382075,345.6894907,345.4228107,345.4228395,346.7403805,346.7403805,347.55486,347.8397242,right,1,1.0893641000000116,None,002,001,2023-11-11_13h32.29.525,untitled,2023.2.2,60.55809125741306,2023-11-11 13h32.58.287545 +0800,
1,condition_2/leftstar.PNG,space,,,,,,,,,,,,,0,8,8,22,347.8942597,,,,,,,,,,,,,,,,,,,,,,,,,,,,,,,,,,,,,,,,,,,,,,,,,,,,,,,,,,,,,,,,,,,,,,,,,,,,,,,,,,,,,,,,,,,,,,,,,,,,,,,,,,347.8413973,347.8942597,348.3556415,348.3556675,348.8556799,349.2536391,349.1392911,349.1393273,350.4566729,350.4566729,351.2715041,351.4061864,space,1,0.9331602999999973,None,002,001,2023-11-11_13h32.29.525,untitled,2023.2.2,60.55809125741306,2023-11-11 13h32.58.287545 +0800,
8,condition_2/rightstar.PNG,right,,,,,,,,,,,,,0,9,9,6,351.5138822,,,,,,,,,,,,,,,,,,,,,,,,,,,,,,,,,,,,,,,,,,,,,,,,,,,,,,,,,,,,,,,,,,,,,,,,,,,,,,,,,,,,,,,,,,,,,,,,,,,,,,,,,,351.4072382,351.5138822,351.9223972,351.9224363,352.421571,352.89263569999997,352.7059588,352.705993,354.0236121,354.0236121,354.8381859,355.3894297,right,1,1.354823300000021,None,002,001,2023-11-11_13h32.29.525,untitled,2023.2.2,60.55809125741306,2023-11-11 13h32.58.287545 +0800,
8,condition_2/rightstar.PNG,right,,,,,,,,,,,,,0,10,10,14,355.4405215,,,,,,,,,,,,,,,,,,,,,,,,,,,,,,,,,,,,,,,,,,,,,,,,,,,,,,,,,,,,,,,,,,,,,,,,,,,,,,,,,,,,,,,,,,,,,,,,,,,,,,,,,,355.390516,355.4405215,355.9055838,355.9056088,356.4051421,356.8236644,356.6892425,356.6892692,358.0070656,358.0070656,,358.7737728,right,1,0.7622225000000071,None,002,001,2023-11-11_13h32.29.525,untitled,2023.2.2,60.55809125741306,2023-11-11 13h32.58.287545 +0800,
2,condition_2/leftstar.PNG,space,,,,,,,,,,,,,0,11,11,17,358.8339474,,,,,,,,,,,,,,,,,,,,,,,,,,,,,,,,,,,,,,,,,,,,,,,,,,,,,,,,,,,,,,,,,,,,,,,,,,,,,,,,,,,,,,,,,,,,,,,,,,,,,,,,,,358.7752443,358.8339474,359.28943929999997,359.2894794,359.7882167,360.2183763,360.0725265,360.0725552,361.3903407,361.3903407,,361.4905002,space,1,0.08533119999998462,None,002,001,2023-11-11_13h32.29.525,untitled,2023.2.2,60.55809125741306,2023-11-11 13h32.58.287545 +0800,
2,condition_2/rightstar.PNG,space,,,,,,,,,,,,,0,12,12,13,361.5428598,,,,,,,,,,,,,,,,,,,,,,,,,,,,,,,,,,,,,,,,,,,,,,,,,,,,,,,,,,,,,,,,,,,,,,,,,,,,,,,,,,,,,,,,,,,,,,,,,,,,,,,,,,361.4916035,361.5428598,362.0055588,362.0055836,362.5050049,362.9139416,362.7893637,362.7894432,364.1071078,364.1071078,,364.5906826,space,1,0.4752751999999987,None,002,001,2023-11-11_13h32.29.525,untitled,2023.2.2,60.55809125741306,2023-11-11 13h32.58.287545 +0800,
9,condition_2/leftstar.PNG,left,,,,,,,,,,,,,0,13,13,20,364.6444923,,,,,,,,,,,,,,,,,,,,,,,,,,,,,,,,,,,,,,,,,,,,,,,,,,,,,,,,,,,,,,,,,,,,,,,,,,,,,,,,,,,,,,,,,,,,,,,,,,,,,,,,,,364.5917674,364.6444923,365.1055646,365.1056019,365.604883,365.9972591,365.8888223,365.8888369,367.2068485,367.2068485,368.0215577,368.20677539999997,left,1,0.9885889000000248,None,002,001,2023-11-11_13h32.29.525,untitled,2023.2.2,60.55809125741306,2023-11-11 13h32.58.287545 +0800,
9,condition_2/blank.PNG,space,,,,,,,,,,,,,0,14,14,11,368.2604169,,,,,,,,,,,,,,,,,,,,,,,,,,,,,,,,,,,,,,,,,,,,,,,,,,,,,,,,,,,,,,,,,,,,,,,,,,,,,,,,,,,,,,,,,,,,,,,,,,,,,,,,,,368.2078793,368.2604169,368.7222548,368.7222818,369.2215687,369.6454915,369.5058856,369.5059111,370.8224894,370.8224894,371.6215508,372.3565653,space,1,1.5206122000000164,None,002,001,2023-11-11_13h32.29.525,untitled,2023.2.2,60.55809125741306,2023-11-11 13h32.58.287545 +0800,
9,condition_2/leftstar.PNG,left,,,,,,,,,,,,,0,15,15,19,372.406516,,,,,,,,,,,,,,,,,,,,,,,,,,,,,,,,,,,,,,,,,,,,,,,,,,,,,,,,,,,,,,,,,,,,,,,,,,,,,,,,,,,,,,,,,,,,,,,,,,,,,,,,,,372.3577605,372.406516,372.8722251,372.8722481,373.3715412,373.8908801,373.65570329999997,373.6557298,374.9737917,374.9737917,375.7883013,376.1064207,left,1,1.1160237999999936,None,002,001,2023-11-11_13h32.29.525,untitled,2023.2.2,60.55809125741306,2023-11-11 13h32.58.287545 +0800,
8,condition_2/leftstar.PNG,left,,,,,,,,,,,,,0,16,16,18,376.1590106,,,,,,,,,,,,,,,,,,,,,,,,,,,,,,,,,,,,,,,,,,,,,,,,,,,,,,,,,,,,,,,,,,,,,,,,,,,,,,,,,,,,,,,,,,,,,,,,,,,,,,,,,,376.1074615,376.1590106,376.6222381,376.622264,377.1216483,377.5476223,377.4057084,377.4057337,378.7237511,378.7237511,379.538137,379.8066293,left,1,1.0750421000000188,None,002,001,2023-11-11_13h32.29.525,untitled,2023.2.2,60.55809125741306,2023-11-11 13h32.58.287545 +0800,
9,condition_2/rightstar.PNG,right,,,,,,,,,,,,,0,17,17,15,379.8754436,,,,,,,,,,,,,,,,,,,,,,,,,,,,,,,,,,,,,,,,,,,,,,,,,,,,,,,,,,,,,,,,,,,,,,,,,,,,,,,,,,,,,,,,,,,,,,,,,,,,,,,,,,379.8077222,379.8754436,380.3224879,380.32252619999997,380.8215433,381.2760782,381.1059749,381.1060012,382.4236562,382.4236562,383.2384315,383.5397544,right,1,1.1139693999999736,None,002,001,2023-11-11_13h32.29.525,untitled,2023.2.2,60.55809125741306,2023-11-11 13h32.58.287545 +0800,
1,condition_2/leftstar.PNG,space,,,,,,,,,,,,,0,18,18,16,383.5942538,,,,,,,,,,,,,,,,,,,,,,,,,,,,,,,,,,,,,,,,,,,,,,,,,,,,,,,,,,,,,,,,,,,,,,,,,,,,,,,,,,,,,,,,,,,,,,,,,,,,,,,,,,383.5408055,383.5942538,384.0556318,384.055671,384.5548516,384.9700892,384.8395624,384.8395991,386.15747730000004,386.15747730000004,386.97164719999995,387.2728947,space,1,1.0984793999999738,None,002,001,2023-11-11_13h32.29.525,untitled,2023.2.2,60.55809125741306,2023-11-11 13h32.58.287545 +0800,
8,condition_2/blank.PNG,space,,,,,,,,,,,,,0,19,19,10,387.32443629999995,,,,,,,,,,,,,,,,,,,,,,,,,,,,,,,,,,,,,,,,,,,,,,,,,,,,,,,,,,,,,,,,,,,,,,,,,,,,,,,,,,,,,,,,,,,,,,,,,,,,,,,,,,387.27396289999996,387.32443629999995,387.7889554,387.78898599999997,388.28836559999996,388.69179319999995,388.5727916,388.5728174,389.8895395,389.8895395,390.6884121,390.79071819999996,space,1,0.8928560999999036,None,002,001,2023-11-11_13h32.29.525,untitled,2023.2.2,60.55809125741306,2023-11-11 13h32.58.287545 +0800,
2,condition_2/rightstar.PNG,space,,,,,,,,,,,,,0,20,20,21,390.8481192,,,,,,,,,,,,,,,,,,,,,,,,,,,,,,,,,,,,,,,,,,,,,,,,,,,,,,,,,,,,,,,,,,,,,,,,,,,,,,,,,,,,,,,,,,,,,,,,,,,,,,,,,,390.79180449999996,390.8481192,391.30563149999995,391.30565670000004,391.80504809999996,392.3415127,392.08936,392.08938570000004,393.40701470000005,393.40701470000005,394.2215346,394.49004340000005,space,1,1.0814415999999483,None,002,001,2023-11-11_13h32.29.525,untitled,2023.2.2,60.55809125741306,2023-11-11 13h32.58.287545 +0800,
8,condition_2/rightstar.PNG,right,,,,,,,,,,,,,0,21,21,23,394.5425122,,,,,,,,,,,,,,,,,,,,,,,,,,,,,,,,,,,,,,,,,,,,,,,,,,,,,,,,,,,,,,,,,,,,,,,,,,,,,,,,,,,,,,,,,,,,,,,,,,,,,,,,,,394.49112469999994,394.5425122,395.00565880000005,395.005699,395.5049327,395.9074176,395.7891567,395.78918400000003,397.10696049999996,397.10696049999996,397.92157230000004,398.206566,right,1,1.0935044999999946,None,002,001,2023-11-11_13h32.29.525,untitled,2023.2.2,60.55809125741306,2023-11-11 13h32.58.287545 +0800,
2,condition_2/blank.PNG,space,,,,,,,,,,,,,0,22,22,9,398.25603829999994,,,,,,,,,,,,,,,,,,,,,,,,,,,,,,,,,,,,,,,,,,,,,,,,,,,,,,,,,,,,,,,,,,,,,,,,,,,,,,,,,,,,,,,,,,,,,,,,,,,,,,,,,,398.2076662,398.25603829999994,398.72225110000005,398.72227719999995,399.22176329999996,399.58722819999997,399.5059921,399.50601939999996,400.82288020000004,400.82288020000004,,401.4905213,space,1,0.6508824000000004,None,002,001,2023-11-11_13h32.29.525,untitled,2023.2.2,60.55809125741306,2023-11-11 13h32.58.287545 +0800,
2,condition_2/rightstar.PNG,space,,,,,,,,,,,,,0,23,23,5,401.5468937,,,,,,,,,,,,,,,,,,,,,,,,,,,,,,,,,,,,,,,,,,,,,,,,,,,,,,,,,,,,,,,,,,,,,,,,,,,,,,,,,,,,,,,,,,,,,,,,,,,,,,,,,,401.4914191,401.5468937,402.00566539999994,402.00569249999995,402.50496430000004,403.03407009999995,402.7892599,402.78929,404.1474367,404.1474367,404.9550112,405.37362019999995,space,1,1.2128900000000158,None,002,001,2023-11-11_13h32.29.525,untitled,2023.2.2,60.55809125741306,2023-11-11 13h32.58.287545 +0800,
2,condition_2/leftstar.PNG,space,,,,,,,,,,,,,0,24,24,1,405.4426097,,,,,,,,,,,,,,,,,,,,,,,,,,,,,,,,,,,,,,,,,,,,,,,,,,,,,,,,,,,,,,,,,,,,,,,,,,,,,,,,,,,,,,,,,,,,,,,,,,,,,,,,,,405.37482889999995,405.4426097,405.88906660000004,405.8891048,406.38834549999996,406.8157603,406.6725704,406.6725978,407.99044769999995,407.99044769999995,408.8049855,409.08991069999996,space,1,1.0860969000000296,None,002,001,2023-11-11_13h32.29.525,untitled,2023.2.2,60.55809125741306,2023-11-11 13h32.58.287545 +0800,
1,condition_2/rightstar.PNG,space,,,,,,,,,,,,,1,0,25,12,409.1437557,,,,,,,,,,,,,,,,,,,,,,,,,,,,,,,,,,,,,,,,,,,,,,,,,,,,,,,,,,,,,,,,,,,,,,,,,,,,,,,,,,,,,,,,,,,,,,,,,,,,,,,,,,409.09122699999995,409.1437557,409.6057692,409.6058086,410.1051928,410.5081982,410.3896038,410.38962999999995,411.7071391,411.7071391,412.52177190000003,413.22317949999996,space,1,1.5119134000000258,None,002,001,2023-11-11_13h32.29.525,untitled,2023.2.2,60.55809125741306,2023-11-11 13h32.58.287545 +0800,
9,condition_2/leftstar.PNG,left,,,,,,,,,,,,,1,1,26,20,413.2777007,,,,,,,,,,,,,,,,,,,,,,,,,,,,,,,,,,,,,,,,,,,,,,,,,,,,,,,,,,,,,,,,,,,,,,,,,,,,,,,,,,,,,,,,,,,,,,,,,,,,,,,,,,413.2242759,413.2777007,413.73894249999995,413.73898049999997,414.2383703,414.63333529999994,414.5224616,414.52248749999995,415.84033170000004,415.84033170000004,416.6549782,416.95655059999996,left,1,1.102735100000018,None,002,001,2023-11-11_13h32.29.525,untitled,2023.2.2,60.55809125741306,2023-11-11 13h32.58.287545 +0800,
8,condition_2/rightstar.PNG,right,,,,,,,,,,,,,1,2,27,14,417.00747240000004,,,,,,,,,,,,,,,,,,,,,,,,,,,,,,,,,,,,,,,,,,,,,,,,,,,,,,,,,,,,,,,,,,,,,,,,,,,,,,,,,,,,,,,,,,,,,,,,,,,,,,,,,,416.9575706,417.00747240000004,417.4723707,417.4724141,417.97144310000004,418.36581870000003,418.2558753,418.2559025,419.57339859999996,419.57339859999996,,420.27332099999995,right,1,0.6852357000000211,None,002,001,2023-11-11_13h32.29.525,untitled,2023.2.2,60.55809125741306,2023-11-11 13h32.58.287545 +0800,
8,condition_2/blank.PNG,space,,,,,,,,,,,,,1,3,28,10,420.32223630000004,,,,,,,,,,,,,,,,,,,,,,,,,,,,,,,,,,,,,,,,,,,,,,,,,,,,,,,,,,,,,,,,,,,,,,,,,,,,,,,,,,,,,,,,,,,,,,,,,,,,,,,,,,420.2743576,420.32223630000004,420.78886759999995,420.78890989999996,421.2884138,421.7101723,421.57269149999996,421.5727189,422.88945440000003,422.88945440000003,,423.34058509999994,space,1,0.4337553000000298,None,002,001,2023-11-11_13h32.29.525,untitled,2023.2.2,60.55809125741306,2023-11-11 13h32.58.287545 +0800,
1,condition_2/rightstar.PNG,space,,,,,,,,,,,,,1,4,29,4,423.39063689999995,,,,,,,,,,,,,,,,,,,,,,,,,,,,,,,,,,,,,,,,,,,,,,,,,,,,,,,,,,,,,,,,,,,,,,,,,,,,,,,,,,,,,,,,,,,,,,,,,,,,,,,,,,423.3416471,423.39063689999995,423.855832,423.85586959999995,424.354895,424.9137635,424.63947920000004,424.63950470000003,425.95715909999996,425.95715909999996,426.7717952,427.48960719999997,space,1,1.5190976999999748,None,002,001,2023-11-11_13h32.29.525,untitled,2023.2.2,60.55809125741306,2023-11-11 13h32.58.287545 +0800,
9,condition_2/leftstar.PNG,left,,,,,,,,,,,,,1,5,30,19,427.5381117,,,,,,,,,,,,,,,,,,,,,,,,,,,,,,,,,,,,,,,,,,,,,,,,,,,,,,,,,,,,,,,,,,,,,,,,,,,,,,,,,,,,,,,,,,,,,,,,,,,,,,,,,,427.49069749999995,427.5381117,428.00580269999995,428.0058297,428.50498180000005,428.90022760000005,428.7893105,428.78934499999997,430.10692969999997,430.10692969999997,430.9215552,431.80693260000004,left,1,1.6888044999999465,None,002,001,2023-11-11_13h32.29.525,untitled,2023.2.2,60.55809125741306,2023-11-11 13h32.58.287545 +0800,
8,condition_2/blank.PNG,space,,,,,,,,,,,,,1,6,31,24,431.8644592,,,,,,,,,,,,,,,,,,,,,,,,,,,,,,,,,,,,,,,,,,,,,,,,,,,,,,,,,,,,,,,,,,,,,,,,,,,,,,,,,,,,,,,,,,,,,,,,,,,,,,,,,,431.80817240000005,431.8644592,432.3223698,432.32240770000004,432.8216131,433.18815349999994,433.1059512,433.1059787,434.42275349999994,434.42275349999994,435.22148680000004,435.5233841,space,1,1.0946688000000222,None,002,001,2023-11-11_13h32.29.525,untitled,2023.2.2,60.55809125741306,2023-11-11 13h32.58.287545 +0800,
2,condition_2/leftstar.PNG,space,,,,,,,,,,,,,1,7,32,1,435.5945814,,,,,,,,,,,,,,,,,,,,,,,,,,,,,,,,,,,,,,,,,,,,,,,,,,,,,,,,,,,,,,,,,,,,,,,,,,,,,,,,,,,,,,,,,,,,,,,,,,,,,,,,,,435.5243416,435.5945814,436.0392301,436.0392669,436.5383655,437.10661120000003,436.8225415,436.82256620000004,438.1406709,438.1406709,438.95492829999995,439.75627679999997,space,1,1.6123890000000074,None,002,001,2023-11-11_13h32.29.525,untitled,2023.2.2,60.55809125741306,2023-11-11 13h32.58.287545 +0800,
8,condition_2/rightstar.PNG,right,,,,,,,,,,,,,1,8,33,6,439.84026869999997,,,,,,,,,,,,,,,,,,,,,,,,,,,,,,,,,,,,,,,,,,,,,,,,,,,,,,,,,,,,,,,,,,,,,,,,,,,,,,,,,,,,,,,,,,,,,,,,,,,,,,,,,,439.7572935,439.84026869999997,440.27251210000003,440.2725489,440.77166589999996,441.1942188,441.05593459999994,441.05596999999995,442.3737143,442.3737143,443.1882436,443.48967369999997,right,1,1.1043895000000248,None,002,001,2023-11-11_13h32.29.525,untitled,2023.2.2,60.55809125741306,2023-11-11 13h32.58.287545 +0800,
9,condition_2/blank.PNG,space,,,,,,,,,,,,,1,9,34,11,443.5449389,,,,,,,,,,,,,,,,,,,,,,,,,,,,,,,,,,,,,,,,,,,,,,,,,,,,,,,,,,,,,,,,,,,,,,,,,,,,,,,,,,,,,,,,,,,,,,,,,,,,,,,,,,443.49074609999997,443.5449389,444.005566,444.00559319999996,444.5047279,444.870469,444.78927029999994,444.78929810000005,446.10622029999996,446.10622029999996,446.9048392,446.9066731,space,1,0.7938234999999167,None,002,001,2023-11-11_13h32.29.525,untitled,2023.2.2,60.55809125741306,2023-11-11 13h32.58.287545 +0800,
8,condition_2/leftstar.PNG,left,,,,,,,,,,,,,1,10,35,2,446.96835949999996,,,,,,,,,,,,,,,,,,,,,,,,,,,,,,,,,,,,,,,,,,,,,,,,,,,,,,,,,,,,,,,,,,,,,,,,,,,,,,,,,,,,,,,,,,,,,,,,,,,,,,,,,,446.9078109,446.96835949999996,447.4222921,447.42233630000004,447.92156570000003,448.49475490000003,448.20600729999995,448.2060359,449.52382229999995,449.52382229999995,450.3382466,450.6560791,left,1,1.1241251000000148,None,002,001,2023-11-11_13h32.29.525,untitled,2023.2.2,60.55809125741306,2023-11-11 13h32.58.287545 +0800,
1,condition_2/leftstar.PNG,space,,,,,,,,,,,,,1,11,36,22,450.7376999,,,,,,,,,,,,,,,,,,,,,,,,,,,,,,,,,,,,,,,,,,,,,,,,,,,,,,,,,,,,,,,,,,,,,,,,,,,,,,,,,,,,,,,,,,,,,,,,,,,,,,,,,,450.6570705,450.7376999,451.1724141,451.1724406,451.67151040000005,452.0915554,451.95604239999994,451.95606949999996,453.2737176,453.2737176,454.0882357,454.42391979999996,space,1,1.1455453999999463,None,002,001,2023-11-11_13h32.29.525,untitled,2023.2.2,60.55809125741306,2023-11-11 13h32.58.287545 +0800,
8,condition_2/rightstar.PNG,right,,,,,,,,,,,,,1,12,37,23,454.48217800000003,,,,,,,,,,,,,,,,,,,,,,,,,,,,,,,,,,,,,,,,,,,,,,,,,,,,,,,,,,,,,,,,,,,,,,,,,,,,,,,,,,,,,,,,,,,,,,,,,,,,,,,,,,454.4250579,454.48217800000003,454.93908230000005,454.93912240000003,455.43835399999995,455.8331615,455.72260009999997,455.72262800000004,457.04039559999995,457.04039559999995,457.85500169999995,458.22329899999994,right,1,1.1670290000000705,None,002,001,2023-11-11_13h32.29.525,untitled,2023.2.2,60.55809125741306,2023-11-11 13h32.58.287545 +0800,
1,condition_2/blank.PNG,space,,,,,,,,,,,,,1,13,38,8,458.2756618,,,,,,,,,,,,,,,,,,,,,,,,,,,,,,,,,,,,,,,,,,,,,,,,,,,,,,,,,,,,,,,,,,,,,,,,,,,,,,,,,,,,,,,,,,,,,,,,,,,,,,,,,,458.22435779999995,458.2756618,458.73902030000005,458.73904699999997,459.23824659999997,459.63545830000004,459.5227703,459.5228242,460.8394751,460.8394751,,461.40673680000003,space,1,0.5586318000000574,None,002,001,2023-11-11_13h32.29.525,untitled,2023.2.2,60.55809125741306,2023-11-11 13h32.58.287545 +0800,
9,condition_2/leftstar.PNG,left,,,,,,,,,,,,,1,14,39,3,461.50183,,,,,,,,,,,,,,,,,,,,,,,,,,,,,,,,,,,,,,,,,,,,,,,,,,,,,,,,,,,,,,,,,,,,,,,,,,,,,,,,,,,,,,,,,,,,,,,,,,,,,,,,,,461.40773659999996,461.50183,461.922221,461.9222461,462.421537,462.9825345,462.7058143,462.7058424,464.02354469999995,464.02354469999995,464.83834499999995,465.07398129999996,left,1,1.036941400000046,None,002,001,2023-11-11_13h32.29.525,untitled,2023.2.2,60.55809125741306,2023-11-11 13h32.58.287545 +0800,
2,condition_2/rightstar.PNG,space,,,,,,,,,,,,,1,15,40,21,465.12367020000005,,,,,,,,,,,,,,,,,,,,,,,,,,,,,,,,,,,,,,,,,,,,,,,,,,,,,,,,,,,,,,,,,,,,,,,,,,,,,,,,,,,,,,,,,,,,,,,,,,,,,,,,,,465.07507730000003,465.12367020000005,465.58914680000004,465.58918520000003,466.0884156,466.48849279999996,466.3727025,466.3727299,467.6904728,467.6904728,468.5049644,468.7564988,space,1,1.0613982999999507,None,002,001,2023-11-11_13h32.29.525,untitled,2023.2.2,60.55809125741306,2023-11-11 13h32.58.287545 +0800,
8,condition_2/leftstar.PNG,left,,,,,,,,,,,,,1,16,41,18,468.8170773,,,,,,,,,,,,,,,,,,,,,,,,,,,,,,,,,,,,,,,,,,,,,,,,,,,,,,,,,,,,,,,,,,,,,,,,,,,,,,,,,,,,,,,,,,,,,,,,,,,,,,,,,,468.75758179999997,468.8170773,469.27239519999995,469.27241999999995,469.7715024,470.2053,470.0559748,470.0560032,471.3737627,471.3737627,472.1883839,472.4237572,left,1,1.047918299999992,None,002,001,2023-11-11_13h32.29.525,untitled,2023.2.2,60.55809125741306,2023-11-11 13h32.58.287545 +0800,
1,condition_2/leftstar.PNG,space,,,,,,,,,,,,,1,17,42,16,472.47795219999995,,,,,,,,,,,,,,,,,,,,,,,,,,,,,,,,,,,,,,,,,,,,,,,,,,,,,,,,,,,,,,,,,,,,,,,,,,,,,,,,,,,,,,,,,,,,,,,,,,,,,,,,,,472.42485029999995,472.47795219999995,472.93891820000005,472.9389521,473.43831459999996,473.83813630000003,473.7224776,473.722503,475.04031230000004,475.04031230000004,475.85500799999994,475.8565907,space,1,0.8107459999999946,None,002,001,2023-11-11_13h32.29.525,untitled,2023.2.2,60.55809125741306,2023-11-11 13h32.58.287545 +0800,
2,condition_2/rightstar.PNG,space,,,,,,,,,,,,,1,18,43,5,475.9105417,,,,,,,,,,,,,,,,,,,,,,,,,,,,,,,,,,,,,,,,,,,,,,,,,,,,,,,,,,,,,,,,,,,,,,,,,,,,,,,,,,,,,,,,,,,,,,,,,,,,,,,,,,475.8576321,475.9105417,476.37262030000005,476.37264509999994,476.87158370000003,477.2726985,477.1558022,477.1558279,478.47365240000005,478.47365240000005,,479.24065279999996,space,1,0.7612285999999813,None,002,001,2023-11-11_13h32.29.525,untitled,2023.2.2,60.55809125741306,2023-11-11 13h32.58.287545 +0800,
2,condition_2/leftstar.PNG,space,,,,,,,,,,,,,1,19,44,17,479.291087,,,,,,,,,,,,,,,,,,,,,,,,,,,,,,,,,,,,,,,,,,,,,,,,,,,,,,,,,,,,,,,,,,,,,,,,,,,,,,,,,,,,,,,,,,,,,,,,,,,,,,,,,,479.2417988,479.291087,479.7557209,479.75575699999996,480.25485339999994,480.6586021,480.5393647,480.5393932,481.85749649999997,481.85749649999997,,482.5903203,space,1,0.7162212000000636,None,002,001,2023-11-11_13h32.29.525,untitled,2023.2.2,60.55809125741306,2023-11-11 13h32.58.287545 +0800,
1,condition_2/leftstar.PNG,space,,,,,,,,,,,,,1,20,45,0,482.6408671,,,,,,,,,,,,,,,,,,,,,,,,,,,,,,,,,,,,,,,,,,,,,,,,,,,,,,,,,,,,,,,,,,,,,,,,,,,,,,,,,,,,,,,,,,,,,,,,,,,,,,,,,,482.59133579999997,482.6408671,483.10560519999996,483.1056305,483.6050611,484.0002805,483.88921710000005,483.889243,485.20688720000004,485.20688720000004,486.02151580000003,486.22376590000005,space,1,1.0056557999999995,None,002,001,2023-11-11_13h32.29.525,untitled,2023.2.2,60.55809125741306,2023-11-11 13h32.58.287545 +0800,
2,condition_2/blank.PNG,space,,,,,,,,,,,,,1,21,46,9,486.2746127,,,,,,,,,,,,,,,,,,,,,,,,,,,,,,,,,,,,,,,,,,,,,,,,,,,,,,,,,,,,,,,,,,,,,,,,,,,,,,,,,,,,,,,,,,,,,,,,,,,,,,,,,,486.224755,486.2746127,486.7389126,486.7389374,487.2381625,487.64729329999994,487.52289449999995,487.5229198,488.83948360000005,488.83948360000005,489.63847230000005,490.8397012,space,1,1.9947572999999466,None,002,001,2023-11-11_13h32.29.525,untitled,2023.2.2,60.55809125741306,2023-11-11 13h32.58.287545 +0800,
2,condition_2/rightstar.PNG,space,,,,,,,,,,,,,1,22,47,13,490.8943247,,,,,,,,,,,,,,,,,,,,,,,,,,,,,,,,,,,,,,,,,,,,,,,,,,,,,,,,,,,,,,,,,,,,,,,,,,,,,,,,,,,,,,,,,,,,,,,,,,,,,,,,,,490.84078289999997,490.8943247,491.35598799999997,491.3560282,491.8548774,492.41266720000004,492.1390595,492.139079,493.45725450000003,493.45725450000003,494.27170140000004,494.9564691,space,1,1.4824188999999706,None,002,001,2023-11-11_13h32.29.525,untitled,2023.2.2,60.55809125741306,2023-11-11 13h32.58.287545 +0800,
9,condition_2/rightstar.PNG,right,,,,,,,,,,,,,1,23,48,15,495.02899740000004,,,,,,,,,,,,,,,,,,,,,,,,,,,,,,,,,,,,,,,,,,,,,,,,,,,,,,,,,,,,,,,,,,,,,,,,,,,,,,,,,,,,,,,,,,,,,,,,,,,,,,,,,,494.95752980000003,495.02899740000004,495.47260209999996,495.4726403,495.9715382,496.4042871,496.25672679999997,496.2567535,497.5738567,497.5738567,498.38819889999996,498.64004300000005,right,1,1.0552457000000004,None,002,001,2023-11-11_13h32.29.525,untitled,2023.2.2,60.55809125741306,2023-11-11 13h32.58.287545 +0800,
9,condition_2/rightstar.PNG,right,,,,,,,,,,,,,1,24,49,7,498.7016659,,,,,,,,,,,,,,,,,,,,,,,,,,,,,,,,,,,,,,,,,,,,,,,,,,,,,,,,,,,,,,,,,,,,,,,,,,,,,,,,,,,,,,,,,,,,,,,,,,,,,,,,,,498.64110709999994,498.7016659,499.15575129999996,499.15577720000005,499.654927,500.12205379999995,499.93914850000004,499.93917600000003,501.2570159,501.2570159,502.071447,502.30657119999995,right,1,1.043713700000012,None,002,001,2023-11-11_13h32.29.525,untitled,2023.2.2,60.55809125741306,2023-11-11 13h32.58.287545 +0800,
