stimuli,star,CorrectAns,trials_3.thisRepN,trials_3.thisTrialN,trials_3.thisN,trials_3.thisIndex,trials.thisRepN,trials.thisTrialN,trials.thisN,trials.thisIndex,trials_4.thisRepN,trials_4.thisTrialN,trials_4.thisN,trials_4.thisIndex,trials_2.thisRepN,trials_2.thisTrialN,trials_2.thisN,trials_2.thisIndex,thisRow.t,notes,routine_21.started,text_9.started,key_resp_8.started,routine_21.stopped,key_resp_8.keys,key_resp_8.rt,key_resp_8.duration,introduction.started,text_6.started,key_resp_5.started,introduction.stopped,key_resp_5.keys,key_resp_5.rt,key_resp_5.duration,routine_14.started,image_6.started,routine_14.stopped,routine_16.started,text_4.started,text_4.stopped,routine_16.stopped,routine_17.started,image_7.started,key_resp_3.started,image_7.stopped,routine_17.stopped,key_resp_3.keys,key_resp_3.rt,key_resp_3.duration,routine_20.started,text_8.started,key_resp_7.started,routine_20.stopped,key_resp_7.keys,key_resp_7.rt,key_resp_7.duration,routine_18.started,text_5.started,key_resp_4.started,routine_18.stopped,key_resp_4.keys,key_resp_4.rt,key_resp_4.duration,trial.started,image_3.started,trial.stopped,routine.started,text_3.started,text_3.stopped,routine.stopped,routine_1.started,image_2.started,key_resp.started,image_2.stopped,routine_1.stopped,key_resp.keys,key_resp.corr,key_resp.rt,key_resp.duration,routine_22.started,text_10.started,key_resp_9.started,routine_22.stopped,key_resp_9.keys,key_resp_9.rt,key_resp_9.duration,routine_19.started,text_7.started,key_resp_6.started,routine_19.stopped,key_resp_6.keys,key_resp_6.rt,key_resp_6.duration,routine_23.started,image_8.started,routine_23.stopped,routine_24.started,text_11.started,text_11.stopped,routine_24.stopped,routine_25.started,image_9.started,key_resp_10.started,image_9.stopped,routine_25.stopped,key_resp_10.keys,key_resp_10.rt,key_resp_10.duration,routine_26.started,text_12.started,key_resp_11.started,text_12.stopped,routine_26.stopped,key_resp_11.keys,key_resp_11.rt,key_resp_11.duration,routine_27.started,text_13.started,key_resp_12.started,text_13.stopped,routine_27.stopped,key_resp_12.keys,key_resp_12.rt,key_resp_12.duration,routine_10.started,image_4.started,routine_10.stopped,routine_11.started,text.started,text.stopped,routine_11.stopped,routine_12.started,image_5.started,key_resp_2.started,image_5.stopped,routine_12.stopped,key_resp_2.keys,key_resp_2.corr,key_resp_2.rt,key_resp_2.duration,participant,session,date,expName,psychopyVersion,frameRate,expStart,
,,,,,,,,,,,,,,,,,,,,,0.0053432472209351545,0.024866846988516045,0.024866846988516045,2.8271940425333923,space,2.7999600976645524,None,,,,,,,,,,,,,,,,,,,,,,,,,,,,,,,,,,,,,,,,,,,,,,,,,,,,,,,,,,,,,,,,,,,,,,,,,,,,,,,,,,,,,,,,,,,,,,,,,,,,,,,,,,,,,,,,,,003,001,2023-11-09_18h02.29.403,untitled,2023.2.2,59.97693282221777,2023-11-09 18h02.39.495959 +0800,
,,,,,,,,,,,,,,,,,,,,,,,,,,,,2.827223488533946,2.843326544728143,2.843326544728143,36.661321716786006,space,33.81390157704368,None,,,,,,,,,,,,,,,,,,,,,,,,,,,,,,,,,,,,,,,,,,,,,,,,,,,,,,,,,,,,,,,,,,,,,,,,,,,,,,,,,,,,,,,,,,,,,,,,,,,,,,,,,,,003,001,2023-11-09_18h02.29.403,untitled,2023.2.2,59.97693282221777,2023-11-09 18h02.39.495959 +0800,
1,test/leftstar.PNG,left,0,0,0,0,,,,,,,,,,,,,36.78972941529264,,,,,,,,,,,,,,,,36.67152145081059,36.78972941529264,37.176217787427504,37.176231609019624,37.676358707572945,38.194120354818324,37.96040324194473,37.96042427480211,39.292099217397435,39.292099217397435,40.092818300749514,42.66087792349208,left,3.36555977748435,None,,,,,,,,,,,,,,,,,,,,,,,,,,,,,,,,,,,,,,,,,,,,,,,,,,,,,,,,,,,,,,,,,,,,,,,,,,,,,,,,,,,,,,,,,,,,003,001,2023-11-09_18h02.29.403,untitled,2023.2.2,59.97693282221777,2023-11-09 18h02.39.495959 +0800,
9,test/rightstar.PNG,space,0,1,1,3,,,,,,,,,,,,,42.76435177033568,,,,,,,,,,,,,,,,42.66189020487809,42.76435177033568,43.17637643526723,43.17639055732866,43.67628569351041,44.183620151400646,43.96041736400616,43.96043779592492,45.28028506132296,45.28028506132296,,45.34362070426437,space,0.04931934668320537,None,,,,,,,,,,,,,,,,,,,,,,,,,,,,,,,,,,,,,,,,,,,,,,,,,,,,,,,,,,,,,,,,,,,,,,,,,,,,,,,,,,,,,,,,,,,,003,001,2023-11-09_18h02.29.403,untitled,2023.2.2,59.97693282221777,2023-11-09 18h02.39.495959 +0800,
8,test/rightstar.PNG,space,0,2,2,1,,,,,,,,,,,,,45.44316801707623,,,,,,,,,,,,,,,,45.34413450692682,45.44316801707623,45.859693413049854,45.85970422994819,46.342937737333386,46.85447726438247,46.62700540784817,46.627038159012045,47.946749612244275,47.946749612244275,48.75959744312581,49.84430216884812,space,1.8944514119957603,None,,,,,,,,,,,,,,,,,,,,,,,,,,,,,,,,,,,,,,,,,,,,,,,,,,,,,,,,,,,,,,,,,,,,,,,,,,,,,,,,,,,,,,,,,,,,003,001,2023-11-09_18h02.29.403,untitled,2023.2.2,59.97693282221777,2023-11-09 18h02.39.495959 +0800,
2,test/leftstar.PNG,left,0,3,3,4,,,,,,,,,,,,,49.94534882393282,,,,,,,,,,,,,,,,49.84495629071739,49.94534882393282,50.35965555390635,50.359667873151466,50.85963301870197,51.369417504024796,51.143662830073254,51.14369678311459,52.46407077135905,52.46407077135905,53.27610883722559,54.32760358231644,left,1.8580384276315272,None,,,,,,,,,,,,,,,,,,,,,,,,,,,,,,,,,,,,,,,,,,,,,,,,,,,,,,,,,,,,,,,,,,,,,,,,,,,,,,,,,,,,,,,,,,,,003,001,2023-11-09_18h02.29.403,untitled,2023.2.2,59.97693282221777,2023-11-09 18h02.39.495959 +0800,
1,test/blank.PNG,space,0,4,4,2,,,,,,,,,,,,,54.42895881946788,,,,,,,,,,,,,,,,54.3283391313912,54.42895881946788,54.84300894857961,54.843023972049195,55.343186826460396,55.72522314359503,55.62753273163344,55.62756217763399,56.94321158513844,56.94321158513844,57.74325671564134,58.99467748516736,space,2.049673900567541,None,,,,,,,,,,,,,,,,,,,,,,,,,,,,,,,,,,,,,,,,,,,,,,,,,,,,,,,,,,,,,,,,,,,,,,,,,,,,,,,,,,,,,,,,,,,,003,001,2023-11-09_18h02.29.403,untitled,2023.2.2,59.97693282221777,2023-11-09 18h02.39.495959 +0800,
8,test/rightstar.PNG,space,0,5,5,5,,,,,,,,,,,,,59.09668504137176,,,,,,,,,,,,,,,,58.99550047083562,59.09668504137176,59.50948281405226,59.50949483282784,60.0096417623613,60.5337982997039,60.293787554918254,60.29381039059217,61.61665363631073,61.61665363631073,62.426196604335246,62.56059355925822,right,0.928835026077877,None,,,,,,,,,,,,,,,,,,,,,,,,,,,,,,,,,,,,,,,,,,,,,,,,,,,,,,,,,,,,,,,,,,,,,,,,,,,,,,,,,,,,,,,,,,,,003,001,2023-11-09_18h02.29.403,untitled,2023.2.2,59.97693282221777,2023-11-09 18h02.39.495959 +0800,
,,,,,,,,,,,,,,,,,,,,,,,,,,,,,,,,,,,,,,,,,,,,,,,,,,62.56100129622496,62.576777141250204,62.576777141250204,70.66097677792254,space,8.073135452203587,None,,,,,,,,,,,,,,,,,,,,,,,,,,,,,,,,,,,,,,,,,,,,,,,,,,,,,,,,,,,,,,,,,,,,,,,,,,,,,,,,,,,,,003,001,2023-11-09_18h02.29.403,untitled,2023.2.2,59.97693282221777,2023-11-09 18h02.39.495959 +0800,
,,,,,,,,,,,,,,,,,,,,,,,,,,,,,,,,,,,,,,,,,,,,,,,,,,,,,,,,,70.661024552556,70.67634308316451,70.67634308316451,92.41079544464378,space,21.724846054506315,None,,,,,,,,,,,,,,,,,,,,,,,,,,,,,,,,,,,,,,,,,,,,,,,,,,,,,,,,,,,,,,,,,,,,,,,,,,,,,,003,001,2023-11-09_18h02.29.403,untitled,2023.2.2,59.97693282221777,2023-11-09 18h02.39.495959 +0800,
8,condition_1/rightstar.PNG,space,,,,,0,0,0,23,,,,,,,,,92.5425203252521,,,,,,,,,,,,,,,,,,,,,,,,,,,,,,,,,,,,,,,,,,,,,92.43042450916823,92.5425203252521,92.92639070756331,92.92640633197175,93.42632760899073,93.9380086571241,93.71033188046363,93.71034990862722,95.03670774483908,95.03670774483908,95.84299001900786,99.79391825910443,space,1,4.748453934736972,None,,,,,,,,,,,,,,,,,,,,,,,,,,,,,,,,,,,,,,,,,,,,,,,,,,,,,,,,,,,,,,003,001,2023-11-09_18h02.29.403,untitled,2023.2.2,59.97693282221777,2023-11-09 18h02.39.495959 +0800,
1,condition_1/blank.PNG,space,,,,,0,1,1,8,,,,,,,,,99.89513768409006,,,,,,,,,,,,,,,,,,,,,,,,,,,,,,,,,,,,,,,,,,,,,99.79460903823951,99.89513768409006,100.30961748443428,100.30963310884272,100.80961387880143,101.19180734142878,101.09343937098538,101.09345709867966,102.40974500364473,102.40974500364473,103.20953533610214,106.16090526620701,space,1,3.735086952837719,None,,,,,,,,,,,,,,,,,,,,,,,,,,,,,,,,,,,,,,,,,,,,,,,,,,,,,,,,,,,,,,003,001,2023-11-09_18h02.29.403,untitled,2023.2.2,59.97693282221777,2023-11-09 18h02.39.495959 +0800,
8,condition_1/blank.PNG,space,,,,,0,2,2,10,,,,,,,,,106.26152435334484,,,,,,,,,,,,,,,,,,,,,,,,,,,,,,,,,,,,,,,,,,,,,106.1615780171785,106.26152435334484,106.6765825572711,106.67659517698553,107.17645215355424,107.54934488658182,107.46021755185961,107.46023708237021,108.7769750904863,108.7769750904863,109.57629488787393,110.92758687621813,space,1,2.1442646702678303,None,,,,,,,,,,,,,,,,,,,,,,,,,,,,,,,,,,,,,,,,,,,,,,,,,,,,,,,,,,,,,,003,001,2023-11-09_18h02.29.403,untitled,2023.2.2,59.97693282221777,2023-11-09 18h02.39.495959 +0800,
2,condition_1/leftstar.PNG,left,,,,,0,3,3,22,,,,,,,,,111.03834740631828,,,,,,,,,,,,,,,,,,,,,,,,,,,,,,,,,,,,,,,,,,,,,110.92846965529566,111.03834740631828,111.4431055194425,111.44311964150393,111.94301688097153,112.45577060483902,112.22703046699553,112.22705029797567,113.55472298825225,113.55472298825225,,114.12717216836154,left,1,0.5666483180025352,None,,,,,,,,,,,,,,,,,,,,,,,,,,,,,,,,,,,,,,,,,,,,,,,,,,,,,,,,,,,,,,003,001,2023-11-09_18h02.29.403,untitled,2023.2.2,59.97693282221777,2023-11-09 18h02.39.495959 +0800,
8,condition_1/rightstar.PNG,space,,,,,0,4,4,6,,,,,,,,,114.22716657963065,,,,,,,,,,,,,,,,,,,,,,,,,,,,,,,,,,,,,,,,,,,,,114.12776018696422,114.22716657963065,114.64313550628799,114.64315353445159,115.14295161901919,115.66049993299544,115.42766229403583,115.42769234097523,116.74695158777058,116.74695158777058,117.55968133418037,117.96083862209548,right,0,1.1977566354157716,None,,,,,,,,,,,,,,,,,,,,,,,,,,,,,,,,,,,,,,,,,,,,,,,,,,,,,,,,,,,,,,003,001,2023-11-09_18h02.29.403,untitled,2023.2.2,59.97693282221777,2023-11-09 18h02.39.495959 +0800,
9,condition_1/leftstar.PNG,space,,,,,0,5,5,19,,,,,,,,,118.06874739718387,,,,,,,,,,,,,,,,,,,,,,,,,,,,,,,,,,,,,,,,,,,,,117.96159971106863,118.06874739718387,118.47636778174865,118.47638310568777,118.97652042020059,119.47417255236132,119.2600289171744,119.26004123641951,120.58074664240485,120.58074664240485,,121.36171497112787,left,0,0.7647486904040761,None,,,,,,,,,,,,,,,,,,,,,,,,,,,,,,,,,,,,,,,,,,,,,,,,,,,,,,,,,,,,,,003,001,2023-11-09_18h02.29.403,untitled,2023.2.2,59.97693282221777,2023-11-09 18h02.39.495959 +0800,
2,condition_1/blank.PNG,space,,,,,0,6,6,9,,,,,,,,,121.4753095285455,,,,,,,,,,,,,,,,,,,,,,,,,,,,,,,,,,,,,,,,,,,,,121.36298715853923,121.4753095285455,121.876419642766,121.87643436576627,122.37637937986733,122.74039053809861,122.66065377332484,122.66067901275369,123.97658502111994,123.97658502111994,124.77633599208684,124.81116460134035,space,1,0.8330045196605624,None,,,,,,,,,,,,,,,,,,,,,,,,,,,,,,,,,,,,,,,,,,,,,,,,,,,,,,,,,,,,,,003,001,2023-11-09_18h02.29.403,untitled,2023.2.2,59.97693282221777,2023-11-09 18h02.39.495959 +0800,
2,condition_1/rightstar.PNG,left,,,,,0,7,7,5,,,,,,,,,124.91372171606486,,,,,,,,,,,,,,,,,,,,,,,,,,,,,,,,,,,,,,,,,,,,,124.81204197196871,124.91372171606486,125.32646420237711,125.32647622115269,125.82643085027439,126.33671411479008,126.11042550672664,126.11045314991088,127.43052126031284,127.43052126031284,,128.06049260154214,right,0,0.6272115298520475,None,,,,,,,,,,,,,,,,,,,,,,,,,,,,,,,,,,,,,,,,,,,,,,,,,,,,,,,,,,,,,,003,001,2023-11-09_18h02.29.403,untitled,2023.2.2,59.97693282221777,2023-11-09 18h02.39.495959 +0800,
9,condition_1/leftstar.PNG,space,,,,,0,8,8,24,,,,,,,,,128.16004922890556,,,,,,,,,,,,,,,,,,,,,,,,,,,,,,,,,,,,,,,,,,,,,128.06107821638966,128.16004922890556,128.57643250285605,128.5764469253868,129.07640035263103,129.58236286727129,129.36028623916286,129.36030607014277,130.66539518035074,130.66539518035074,,131.42719957117015,left,0,0.7512455958697046,None,,,,,,,,,,,,,,,,,,,,,,,,,,,,,,,,,,,,,,,,,,,,,,,,,,,,,,,,,,,,,,003,001,2023-11-09_18h02.29.403,untitled,2023.2.2,59.97693282221777,2023-11-09 18h02.39.495959 +0800,
8,condition_1/leftstar.PNG,space,,,,,0,9,9,2,,,,,,,,,131.5291383198835,,,,,,,,,,,,,,,,,,,,,,,,,,,,,,,,,,,,,,,,,,,,,131.427744923119,131.5291383198835,131.94307787625826,131.94309470254439,132.44312595136125,132.94872159287252,132.72715516179392,132.7271776969983,134.04725091538012,134.04725091538012,134.85975711256128,134.99453386079745,left,0,0.9382096711481154,None,,,,,,,,,,,,,,,,,,,,,,,,,,,,,,,,,,,,,,,,,,,,,,,,,,,,,,,,,,,,,,003,001,2023-11-09_18h02.29.403,untitled,2023.2.2,59.97693282221777,2023-11-09 18h02.39.495959 +0800,
1,condition_1/rightstar.PNG,right,,,,,0,10,10,21,,,,,,,,,135.1074655827333,,,,,,,,,,,,,,,,,,,,,,,,,,,,,,,,,,,,,,,,,,,,,134.99550377599894,135.1074655827333,135.50976134917983,135.5097763726494,136.00977907687388,136.51192953632176,136.293609977507,136.2936265033236,137.6141053553863,137.6141053553863,,138.29449185517615,right,1,0.6755898063954646,None,,,,,,,,,,,,,,,,,,,,,,,,,,,,,,,,,,,,,,,,,,,,,,,,,,,,,,,,,,,,,,003,001,2023-11-09_18h02.29.403,untitled,2023.2.2,59.97693282221777,2023-11-09 18h02.39.495959 +0800,
8,condition_1/rightstar.PNG,space,,,,,0,11,11,14,,,,,,,,,138.4044753714254,,,,,,,,,,,,,,,,,,,,,,,,,,,,,,,,,,,,,,,,,,,,,138.2954957234192,138.4044753714254,138.80968208535387,138.80969740929277,139.30968989755797,139.8219902131109,139.59389458211626,139.59391892013718,140.91418654221638,140.91418654221638,141.72647760331188,142.02802207608738,space,1,1.110842858713795,None,,,,,,,,,,,,,,,,,,,,,,,,,,,,,,,,,,,,,,,,,,,,,,,,,,,,,,,,,,,,,,003,001,2023-11-09_18h02.29.403,untitled,2023.2.2,59.97693282221777,2023-11-09 18h02.39.495959 +0800,
9,condition_1/leftstar.PNG,space,,,,,0,12,12,3,,,,,,,,,142.12956630848726,,,,,,,,,,,,,,,,,,,,,,,,,,,,,,,,,,,,,,,,,,,,,142.02902834808538,142.12956630848726,142.5430332265064,142.54304584622105,143.04304013730257,143.55400186170846,143.32699993930532,143.32701796746892,144.6471765191584,144.6471765191584,,145.24390302530628,left,0,0.5939624881991676,None,,,,,,,,,,,,,,,,,,,,,,,,,,,,,,,,,,,,,,,,,,,,,,,,,,,,,,,,,,,,,,003,001,2023-11-09_18h02.29.403,untitled,2023.2.2,59.97693282221777,2023-11-09 18h02.39.495959 +0800,
9,condition_1/rightstar.PNG,space,,,,,0,13,13,15,,,,,,,,,145.3430888734381,,,,,,,,,,,,,,,,,,,,,,,,,,,,,,,,,,,,,,,,,,,,,145.24447932560247,145.3430888734381,145.759754288149,145.75976991255743,146.2597560909653,146.76633817349466,146.5438925689714,146.54391780840024,147.8481499798986,147.8481499798986,,148.3942404824818,space,1,0.5301484979836459,None,,,,,,,,,,,,,,,,,,,,,,,,,,,,,,,,,,,,,,,,,,,,,,,,,,,,,,,,,,,,,,003,001,2023-11-09_18h02.29.403,untitled,2023.2.2,59.97693282221777,2023-11-09 18h02.39.495959 +0800,
1,condition_1/rightstar.PNG,right,,,,,0,14,14,12,,,,,,,,,148.49814910853752,,,,,,,,,,,,,,,,,,,,,,,,,,,,,,,,,,,,,,,,,,,,,148.39498023812803,148.49814910853752,148.9097687407268,148.9097807595026,149.40979788625805,149.92032693473743,149.69393166003942,149.69395629852966,151.0142215168537,151.0142215168537,151.8261928785148,152.26133325481078,right,1,1.2437801333244352,None,,,,,,,,,,,,,,,,,,,,,,,,,,,,,,,,,,,,,,,,,,,,,,,,,,,,,,,,,,,,,,003,001,2023-11-09_18h02.29.403,untitled,2023.2.2,59.97693282221777,2023-11-09 18h02.39.495959 +0800,
2,condition_1/leftstar.PNG,left,,,,,0,15,15,17,,,,,,,,,152.3714826301648,,,,,,,,,,,,,,,,,,,,,,,,,,,,,,,,,,,,,,,,,,,,,152.26228033433836,152.3714826301648,152.77639368221048,152.77640930661892,153.2764618887627,153.78756243002817,153.56130026327128,153.56133271396584,154.88172142521057,154.88172142521057,155.69325800765955,156.21164102561033,left,1,1.3278000892994442,None,,,,,,,,,,,,,,,,,,,,,,,,,,,,,,,,,,,,,,,,,,,,,,,,,,,,,,,,,,,,,,003,001,2023-11-09_18h02.29.403,untitled,2023.2.2,59.97693282221777,2023-11-09 18h02.39.495959 +0800,
1,condition_1/rightstar.PNG,right,,,,,0,16,16,4,,,,,,,,,156.326403808029,,,,,,,,,,,,,,,,,,,,,,,,,,,,,,,,,,,,,,,,,,,,,156.2128038421622,156.326403808029,156.7270914622825,156.72714524630373,157.22634269255445,157.7289711988069,157.51028116123007,157.5102979875162,158.83053616359484,158.83053616359484,159.64317126214587,160.57769657759354,right,1,1.7395299937561504,None,,,,,,,,,,,,,,,,,,,,,,,,,,,,,,,,,,,,,,,,,,,,,,,,,,,,,,,,,,,,,,003,001,2023-11-09_18h02.29.403,untitled,2023.2.2,59.97693282221777,2023-11-09 18h02.39.495959 +0800,
9,condition_1/blank.PNG,space,,,,,0,17,17,11,,,,,,,,,160.67947307283453,,,,,,,,,,,,,,,,,,,,,,,,,,,,,,,,,,,,,,,,,,,,,160.57859618295697,160.67947307283453,161.09314641332685,161.09316113632713,161.59313619736758,161.99034802167944,161.87804998969386,161.8780911540009,163.1933268151506,163.1933268151506,163.9933446029388,164.44385639245638,space,1,1.2406456366136354,None,,,,,,,,,,,,,,,,,,,,,,,,,,,,,,,,,,,,,,,,,,,,,,,,,,,,,,,,,,,,,,003,001,2023-11-09_18h02.29.403,untitled,2023.2.2,59.97693282221777,2023-11-09 18h02.39.495959 +0800,
2,condition_1/leftstar.PNG,left,,,,,0,18,18,1,,,,,,,,,164.5465973944497,,,,,,,,,,,,,,,,,,,,,,,,,,,,,,,,,,,,,,,,,,,,,164.44432392283238,164.5465973944497,164.9597121623401,164.95972598393223,165.45970374919716,165.97167535123367,165.74363290332167,165.74365183289342,167.04750330967045,167.04750330967045,,167.62697596184762,left,1,0.5705288802166706,None,,,,,,,,,,,,,,,,,,,,,,,,,,,,,,,,,,,,,,,,,,,,,,,,,,,,,,,,,,,,,,003,001,2023-11-09_18h02.29.403,untitled,2023.2.2,59.97693282221777,2023-11-09 18h02.39.495959 +0800,
8,condition_1/leftstar.PNG,space,,,,,0,19,19,18,,,,,,,,,167.72650704931243,,,,,,,,,,,,,,,,,,,,,,,,,,,,,,,,,,,,,,,,,,,,,167.62741795232523,167.72650704931243,168.14315143116573,168.1431673560437,168.626382534796,169.13046801713654,168.91055206443502,168.91057429917032,170.2313803624022,170.2313803624022,171.04336734847175,171.89414463274534,space,1,1.6502698515621432,None,,,,,,,,,,,,,,,,,,,,,,,,,,,,,,,,,,,,,,,,,,,,,,,,,,,,,,,,,,,,,,003,001,2023-11-09_18h02.29.403,untitled,2023.2.2,59.97693282221777,2023-11-09 18h02.39.495959 +0800,
2,condition_1/blank.PNG,space,,,,,0,20,20,20,,,,,,,,,171.99776570959148,,,,,,,,,,,,,,,,,,,,,,,,,,,,,,,,,,,,,,,,,,,,,171.89487056679945,171.99776570959148,172.40959927598897,172.40961129476477,172.90972457172597,173.27104442560176,173.19367566011624,173.19369398874937,174.5097159783013,174.5097159783013,175.30970191633378,177.0112588886359,space,1,2.4991592866376777,None,,,,,,,,,,,,,,,,,,,,,,,,,,,,,,,,,,,,,,,,,,,,,,,,,,,,,,,,,,,,,,003,001,2023-11-09_18h02.29.403,untitled,2023.2.2,59.97693282221777,2023-11-09 18h02.39.495959 +0800,
1,condition_1/leftstar.PNG,left,,,,,0,21,21,16,,,,,,,,,177.11535981510315,,,,,,,,,,,,,,,,,,,,,,,,,,,,,,,,,,,,,,,,,,,,,177.01215939540748,177.11535981510315,177.52635296860763,177.5263664897302,178.0262619263815,178.5418445695866,178.31030976591637,178.31032569079412,179.64117584490486,179.64117584490486,,180.41068156674373,left,1,0.7678176847871327,None,,,,,,,,,,,,,,,,,,,,,,,,,,,,,,,,,,,,,,,,,,,,,,,,,,,,,,,,,,,,,,003,001,2023-11-09_18h02.29.403,untitled,2023.2.2,59.97693282221777,2023-11-09 18h02.39.495959 +0800,
1,condition_1/leftstar.PNG,left,,,,,0,22,22,0,,,,,,,,,180.51177058801272,,,,,,,,,,,,,,,,,,,,,,,,,,,,,,,,,,,,,,,,,,,,,180.41126117220324,180.51177058801272,180.92653313005576,180.9265529610359,181.42646943054456,181.9337365832905,181.7105695517539,181.71059148601944,183.03061873258412,183.03061873258412,,183.72724770636705,left,1,0.6830642830229863,None,,,,,,,,,,,,,,,,,,,,,,,,,,,,,,,,,,,,,,,,,,,,,,,,,,,,,,,,,,,,,,003,001,2023-11-09_18h02.29.403,untitled,2023.2.2,59.97693282221777,2023-11-09 18h02.39.495959 +0800,
2,condition_1/rightstar.PNG,right,,,,,0,23,23,13,,,,,,,,,183.8294418540645,,,,,,,,,,,,,,,,,,,,,,,,,,,,,,,,,,,,,,,,,,,,,183.72782851370425,183.8294418540645,184.24294753263553,184.2429607532888,184.74317288468046,185.2526298583648,185.02721201060308,185.0272336443993,186.34702382061255,186.34702382061255,,186.96106277226295,right,1,0.5979767592932603,None,,,,,,,,,,,,,,,,,,,,,,,,,,,,,,,,,,,,,,,,,,,,,,,,,,,,,,,,,,,,,,003,001,2023-11-09_18h02.29.403,untitled,2023.2.2,59.97693282221777,2023-11-09 18h02.39.495959 +0800,
9,condition_1/rightstar.PNG,space,,,,,0,24,24,7,,,,,,,,,187.07113462651364,,,,,,,,,,,,,,,,,,,,,,,,,,,,,,,,,,,,,,,,,,,,,186.96194975791195,187.07113462651364,187.47644259862773,187.476455819281,187.9764996878123,188.4850750842968,188.2606007104298,188.26062444751187,189.58014209798557,189.58014209798557,,190.2275397626172,right,0,0.6371853108926189,None,,,,,,,,,,,,,,,,,,,,,,,,,,,,,,,,,,,,,,,,,,,,,,,,,,,,,,,,,,,,,,003,001,2023-11-09_18h02.29.403,untitled,2023.2.2,59.97693282221777,2023-11-09 18h02.39.495959 +0800,
8,condition_1/rightstar.PNG,space,,,,,1,0,25,6,,,,,,,,,190.34061060188242,,,,,,,,,,,,,,,,,,,,,,,,,,,,,,,,,,,,,,,,,,,,,190.22834652293818,190.34061060188242,190.74319632129323,190.74321224617097,191.24306952320921,191.7588282414788,191.52727631105313,191.5273000481352,192.84792462785367,192.84792462785367,,193.41056107851682,right,0,0.5461929626462734,None,,,,,,,,,,,,,,,,,,,,,,,,,,,,,,,,,,,,,,,,,,,,,,,,,,,,,,,,,,,,,,003,001,2023-11-09_18h02.29.403,untitled,2023.2.2,59.97693282221777,2023-11-09 18h02.39.495959 +0800,
8,condition_1/leftstar.PNG,space,,,,,1,1,26,2,,,,,,,,,193.51403702864627,,,,,,,,,,,,,,,,,,,,,,,,,,,,,,,,,,,,,,,,,,,,,193.4111232567518,193.51403702864627,193.9265262192598,193.92653883897424,194.4100911443859,194.92302124378716,194.69462454246036,194.69467231709382,196.0305808734406,196.0305808734406,196.84309758705058,197.39440754346447,space,1,1.355177358068886,None,,,,,,,,,,,,,,,,,,,,,,,,,,,,,,,,,,,,,,,,,,,,,,,,,,,,,,,,,,,,,,003,001,2023-11-09_18h02.29.403,untitled,2023.2.2,59.97693282221777,2023-11-09 18h02.39.495959 +0800,
9,condition_1/leftstar.PNG,space,,,,,1,2,27,24,,,,,,,,,197.5000198309799,,,,,,,,,,,,,,,,,,,,,,,,,,,,,,,,,,,,,,,,,,,,,197.39531526150154,197.5000198309799,197.90980179235999,197.90981471254395,198.40989043083118,198.91743521729654,198.6936957915657,198.69371442066813,200.0137753198046,200.0137753198046,200.82626559210803,201.2112903778284,space,1,1.1955502886607974,None,,,,,,,,,,,,,,,,,,,,,,,,,,,,,,,,,,,,,,,,,,,,,,,,,,,,,,,,,,,,,,003,001,2023-11-09_18h02.29.403,untitled,2023.2.2,59.97693282221777,2023-11-09 18h02.39.495959 +0800,
8,condition_1/blank.PNG,space,,,,,1,3,28,10,,,,,,,,,201.31313628149906,,,,,,,,,,,,,,,,,,,,,,,,,,,,,,,,,,,,,,,,,,,,,201.21205507243417,201.31313628149906,201.7263799507591,201.72639196953492,202.22644785684201,202.59654352028747,202.51028987484256,202.510305499251,203.82646330096873,203.82646330096873,204.62702884446094,208.07788707518898,space,1,4.2479701790136914,None,,,,,,,,,,,,,,,,,,,,,,,,,,,,,,,,,,,,,,,,,,,,,,,,,,,,,,,,,,,,,,003,001,2023-11-09_18h02.29.403,untitled,2023.2.2,59.97693282221777,2023-11-09 18h02.39.495959 +0800,
1,condition_1/leftstar.PNG,left,,,,,1,4,29,16,,,,,,,,,208.17860501675727,,,,,,,,,,,,,,,,,,,,,,,,,,,,,,,,,,,,,,,,,,,,,208.07886660541112,208.17860501675727,208.5930727983257,208.59308481710127,209.09297334295638,209.60651700085873,209.37682046893656,209.37683459099821,210.70448835170305,210.70448835170305,,211.36056237053526,left,1,0.6492296265225832,None,,,,,,,,,,,,,,,,,,,,,,,,,,,,,,,,,,,,,,,,,,,,,,,,,,,,,,,,,,,,,,003,001,2023-11-09_18h02.29.403,untitled,2023.2.2,59.97693282221777,2023-11-09 18h02.39.495959 +0800,
9,condition_1/leftstar.PNG,space,,,,,1,5,30,19,,,,,,,,,211.46010187114325,,,,,,,,,,,,,,,,,,,,,,,,,,,,,,,,,,,,,,,,,,,,,211.36116120603606,211.46010187114325,211.87650106997148,211.87651669437992,212.37654583991116,212.8819239415816,212.66062222403843,212.6606456606512,213.98036702937338,213.98036702937338,214.79293932982114,214.96048797431354,space,1,0.9722447407341406,None,,,,,,,,,,,,,,,,,,,,,,,,,,,,,,,,,,,,,,,,,,,,,,,,,,,,,,,,,,,,,,003,001,2023-11-09_18h02.29.403,untitled,2023.2.2,59.97693282221777,2023-11-09 18h02.39.495959 +0800,
9,condition_1/rightstar.PNG,space,,,,,1,6,31,15,,,,,,,,,215.06033034806978,,,,,,,,,,,,,,,,,,,,,,,,,,,,,,,,,,,,,,,,,,,,,214.9609849506901,215.06033034806978,215.4764332840764,215.47644590379105,215.9765087018941,216.48523403260583,216.26040570579357,216.26042523630417,217.58042213546014,217.58042213546014,218.39294005094757,218.6441174402653,space,1,1.0535196083321807,None,,,,,,,,,,,,,,,,,,,,,,,,,,,,,,,,,,,,,,,,,,,,,,,,,,,,,,,,,,,,,,003,001,2023-11-09_18h02.29.403,untitled,2023.2.2,59.97693282221777,2023-11-09 18h02.39.495959 +0800,
9,condition_1/blank.PNG,space,,,,,1,7,32,11,,,,,,,,,218.74557844264314,,,,,,,,,,,,,,,,,,,,,,,,,,,,,,,,,,,,,,,,,,,,,218.6448520879319,218.74557844264314,219.15976889096146,219.15978271255358,219.6597830130229,220.03531777342573,219.9436679981468,219.94368362255523,221.25993306743794,221.25993306743794,222.05963776611839,223.66033677811492,space,1,2.38872116019661,None,,,,,,,,,,,,,,,,,,,,,,,,,,,,,,,,,,,,,,,,,,,,,,,,,,,,,,,,,,,,,,003,001,2023-11-09_18h02.29.403,untitled,2023.2.2,59.97693282221777,2023-11-09 18h02.39.495959 +0800,
1,condition_1/rightstar.PNG,right,,,,,1,8,33,12,,,,,,,,,223.76665637058227,,,,,,,,,,,,,,,,,,,,,,,,,,,,,,,,,,,,,,,,,,,,,223.66081422398065,223.76665637058227,224.17644043524797,224.17645245402377,224.65976288157367,225.1737707646887,224.94371727512726,224.943736204699,226.27287668796203,226.27287668796203,227.07626964844485,228.11119801353675,right,1,1.8331562567041146,None,,,,,,,,,,,,,,,,,,,,,,,,,,,,,,,,,,,,,,,,,,,,,,,,,,,,,,,,,,,,,,003,001,2023-11-09_18h02.29.403,untitled,2023.2.2,59.97693282221777,2023-11-09 18h02.39.495959 +0800,
1,condition_1/leftstar.PNG,left,,,,,1,9,34,0,,,,,,,,,228.21237567327694,,,,,,,,,,,,,,,,,,,,,,,,,,,,,,,,,,,,,,,,,,,,,228.11206216351184,228.21237567327694,228.6265066286553,228.62652195259443,229.12653457230886,229.63382005368794,229.41084081552208,229.4108669563593,230.73069619359376,230.73069619359376,231.54320900110156,232.01109513281654,left,1,1.2631766345384676,None,,,,,,,,,,,,,,,,,,,,,,,,,,,,,,,,,,,,,,,,,,,,,,,,,,,,,,,,,,,,,,003,001,2023-11-09_18h02.29.403,untitled,2023.2.2,59.97693282221777,2023-11-09 18h02.39.495959 +0800,
8,condition_1/leftstar.PNG,space,,,,,1,10,35,18,,,,,,,,,232.12390396277078,,,,,,,,,,,,,,,,,,,,,,,,,,,,,,,,,,,,,,,,,,,,,232.0120524283036,232.12390396277078,232.52655097793786,232.52656630187676,233.02652844273325,233.53822361292828,233.31075566249592,233.310779399578,234.63060653352682,234.63060653352682,235.44292674015355,236.61143748764334,space,1,1.9780639314737982,None,,,,,,,,,,,,,,,,,,,,,,,,,,,,,,,,,,,,,,,,,,,,,,,,,,,,,,,,,,,,,,003,001,2023-11-09_18h02.29.403,untitled,2023.2.2,59.97693282221777,2023-11-09 18h02.39.495959 +0800,
2,condition_1/rightstar.PNG,right,,,,,1,11,36,13,,,,,,,,,236.72103429978324,,,,,,,,,,,,,,,,,,,,,,,,,,,,,,,,,,,,,,,,,,,,,236.61238787233424,236.72103429978324,237.12644653477673,237.1264594549607,237.62649941738982,238.13250640150045,237.91039732269746,237.9104156513306,239.23257743246495,239.23257743246495,240.04310954573248,240.34425409374535,right,1,1.1054749730028561,None,,,,,,,,,,,,,,,,,,,,,,,,,,,,,,,,,,,,,,,,,,,,,,,,,,,,,,,,,,,,,,003,001,2023-11-09_18h02.29.403,untitled,2023.2.2,59.97693282221777,2023-11-09 18h02.39.495959 +0800,
8,condition_1/rightstar.PNG,space,,,,,1,12,37,14,,,,,,,,,240.4439152844575,,,,,,,,,,,,,,,,,,,,,,,,,,,,,,,,,,,,,,,,,,,,,240.34498723906495,240.4439152844575,240.85980188250096,240.85981720643986,241.36004766646465,241.86830757008602,241.64402068912068,241.64404472667206,242.96310055568824,242.96310055568824,243.7762539639425,248.84394190604576,space,1,5.878164468532532,None,,,,,,,,,,,,,,,,,,,,,,,,,,,,,,,,,,,,,,,,,,,,,,,,,,,,,,,,,,,,,,003,001,2023-11-09_18h02.29.403,untitled,2023.2.2,59.97693282221777,2023-11-09 18h02.39.495959 +0800,
2,condition_1/blank.PNG,space,,,,,1,13,38,9,,,,,,,,,248.9452009929912,,,,,,,,,,,,,,,,,,,,,,,,,,,,,,,,,,,,,,,,,,,,,248.84444068523862,248.9452009929912,249.3597814505822,249.35979407029663,249.85986077450207,250.24087519523005,250.14400416330386,250.14402729944732,251.45975092289177,251.45975092289177,252.259757292843,253.29400479428978,space,1,1.8213493118948918,None,,,,,,,,,,,,,,,,,,,,,,,,,,,,,,,,,,,,,,,,,,,,,,,,,,,,,,,,,,,,,,003,001,2023-11-09_18h02.29.403,untitled,2023.2.2,59.97693282221777,2023-11-09 18h02.39.495959 +0800,
8,condition_1/rightstar.PNG,space,,,,,1,14,39,23,,,,,,,,,253.39177633298755,,,,,,,,,,,,,,,,,,,,,,,,,,,,,,,,,,,,,,,,,,,,,253.29446150776744,253.39177633298755,253.80985876135696,253.80987138107162,254.30975479894687,254.82275310490058,254.59364248829525,254.59366081692815,255.9193912730468,255.9193912730468,256.7264283263314,258.0271429026425,space,1,2.097214768911954,None,,,,,,,,,,,,,,,,,,,,,,,,,,,,,,,,,,,,,,,,,,,,,,,,,,,,,,,,,,,,,,003,001,2023-11-09_18h02.29.403,untitled,2023.2.2,59.97693282221777,2023-11-09 18h02.39.495959 +0800,
2,condition_1/rightstar.PNG,left,,,,,1,15,40,5,,,,,,,,,258.12913363256075,,,,,,,,,,,,,,,,,,,,,,,,,,,,,,,,,,,,,,,,,,,,,258.02765430155,258.12913363256075,258.54318616542764,258.54319998701976,259.04315311379446,259.54859130934346,259.32690348863,259.32691791116076,260.64757554251264,260.64757554251264,261.45964635954283,262.4280318713895,right,0,1.7773161232478287,None,,,,,,,,,,,,,,,,,,,,,,,,,,,,,,,,,,,,,,,,,,,,,,,,,,,,,,,,,,,,,,003,001,2023-11-09_18h02.29.403,untitled,2023.2.2,59.97693282221777,2023-11-09 18h02.39.495959 +0800,
9,condition_1/leftstar.PNG,space,,,,,1,16,41,3,,,,,,,,,262.53139574643524,,,,,,,,,,,,,,,,,,,,,,,,,,,,,,,,,,,,,,,,,,,,,262.42901711053014,262.53139574643524,262.9433164489567,262.9433347775896,263.44314518140254,263.9486116210744,263.7272528143467,263.72727384720406,265.04847923425973,265.04847923425973,265.8596258074365,267.14435210686133,space,1,2.089691315773507,None,,,,,,,,,,,,,,,,,,,,,,,,,,,,,,,,,,,,,,,,,,,,,,,,,,,,,,,,,,,,,,003,001,2023-11-09_18h02.29.403,untitled,2023.2.2,59.97693282221777,2023-11-09 18h02.39.495959 +0800,
2,condition_1/leftstar.PNG,left,,,,,1,17,42,17,,,,,,,,,267.25009479809364,,,,,,,,,,,,,,,,,,,,,,,,,,,,,,,,,,,,,,,,,,,,,267.14509576860974,267.25009479809364,267.6598286843707,267.65984070314653,268.15973403651196,268.6636629742984,268.44361030802315,268.4436217258601,269.7633761462157,269.7633761462157,270.57648538546914,272.5274686114649,left,1,2.7586861194556604,None,,,,,,,,,,,,,,,,,,,,,,,,,,,,,,,,,,,,,,,,,,,,,,,,,,,,,,,,,,,,,,003,001,2023-11-09_18h02.29.403,untitled,2023.2.2,59.97693282221777,2023-11-09 18h02.39.495959 +0800,
1,condition_1/blank.PNG,space,,,,,1,18,43,8,,,,,,,,,272.6285065529371,,,,,,,,,,,,,,,,,,,,,,,,,,,,,,,,,,,,,,,,,,,,,272.5282008553763,272.6285065529371,273.04324475695944,273.0432591794902,273.5432204189385,273.9318556448884,273.82731152606607,273.82733436174,275.14345370337537,275.14345370337537,275.943484110878,277.47790918973624,space,1,2.32130814758807,None,,,,,,,,,,,,,,,,,,,,,,,,,,,,,,,,,,,,,,,,,,,,,,,,,,,,,,,,,,,,,,003,001,2023-11-09_18h02.29.403,untitled,2023.2.2,59.97693282221777,2023-11-09 18h02.39.495959 +0800,
9,condition_1/rightstar.PNG,space,,,,,1,19,44,7,,,,,,,,,277.580331093234,,,,,,,,,,,,,,,,,,,,,,,,,,,,,,,,,,,,,,,,,,,,,277.4786264101781,277.580331093234,277.9932460489779,277.99325957010046,278.49323222738576,279.008222945886,278.77713704348935,278.7771559730611,280.1045158746995,280.1045158746995,280.9097912759314,281.3440771172727,space,1,1.2324518362586332,None,,,,,,,,,,,,,,,,,,,,,,,,,,,,,,,,,,,,,,,,,,,,,,,,,,,,,,,,,,,,,,003,001,2023-11-09_18h02.29.403,untitled,2023.2.2,59.97693282221777,2023-11-09 18h02.39.495959 +0800,
2,condition_1/blank.PNG,space,,,,,1,20,45,20,,,,,,,,,281.44465684292004,,,,,,,,,,,,,,,,,,,,,,,,,,,,,,,,,,,,,,,,,,,,,281.344554863608,281.44465684292004,281.8596853003762,281.859697319152,282.3598460515018,282.74042839724234,282.64384852015814,282.6438686516076,283.9598188289747,283.9598188289747,284.75982159329305,285.8442138308467,space,1,1.8740134838644735,None,,,,,,,,,,,,,,,,,,,,,,,,,,,,,,,,,,,,,,,,,,,,,,,,,,,,,,,,,,,,,,003,001,2023-11-09_18h02.29.403,untitled,2023.2.2,59.97693282221777,2023-11-09 18h02.39.495959 +0800,
2,condition_1/leftstar.PNG,left,,,,,1,21,46,1,,,,,,,,,285.9441959228707,,,,,,,,,,,,,,,,,,,,,,,,,,,,,,,,,,,,,,,,,,,,,285.844773304857,285.9441959228707,286.3599289810543,286.3599413002994,286.8600257321989,287.38413299256104,287.1438097596065,287.1438289896478,288.4686571361781,288.4686571361781,289.36059542216867,289.26075334888174,left,1,0.7890659788722587,None,,,,,,,,,,,,,,,,,,,,,,,,,,,,,,,,,,,,,,,,,,,,,,,,,,,,,,,,,,,,,,003,001,2023-11-09_18h02.29.403,untitled,2023.2.2,59.97693282221777,2023-11-09 18h02.39.495959 +0800,
1,condition_1/rightstar.PNG,right,,,,,1,22,47,21,,,,,,,,,289.36059542216867,,,,,,,,,,,,,,,,,,,,,,,,,,,,,,,,,,,,,,,,,,,,,289.2613311515249,289.36059542216867,289.77657396384643,289.776588987316,290.276555334744,290.7730758991697,290.56039494898937,290.5604072682345,291.88151019522707,291.88151019522707,292.6937261389744,293.11178633260874,right,1,1.2157739821150244,None,,,,,,,,,,,,,,,,,,,,,,,,,,,,,,,,,,,,,,,,,,,,,,,,,,,,,,,,,,,,,,003,001,2023-11-09_18h02.29.403,untitled,2023.2.2,59.97693282221777,2023-11-09 18h02.39.495959 +0800,
2,condition_1/leftstar.PNG,left,,,,,1,23,48,22,,,,,,,,,293.22524658020757,,,,,,,,,,,,,,,,,,,,,,,,,,,,,,,,,,,,,,,,,,,,,293.1129647735693,293.22524658020757,293.6265925629018,293.6266072859021,294.12654358639065,294.6317573313031,294.41079844933756,294.41082849627696,295.73208556406826,295.73208556406826,296.54359931084355,296.57876144112333,left,1,0.8291200513442618,None,,,,,,,,,,,,,,,,,,,,,,,,,,,,,,,,,,,,,,,,,,,,,,,,,,,,,,,,,,,,,,003,001,2023-11-09_18h02.29.403,untitled,2023.2.2,59.97693282221777,2023-11-09 18h02.39.495959 +0800,
1,condition_1/rightstar.PNG,right,,,,,1,24,49,4,,,,,,,,,296.69157417717975,,,,,,,,,,,,,,,,,,,,,,,,,,,,,,,,,,,,,,,,,,,,,296.5802749054574,296.69157417717975,297.0933825822701,297.0934003099642,297.59335283580003,298.1018645327731,297.8773817457634,297.8774060837841,299.1974612740023,299.1974612740023,300.0101549640849,300.21104549527286,right,1,1.00399233682856,None,,,,,,,,,,,,,,,,,,,,,,,,,,,,,,,,,,,,,,,,,,,,,,,,,,,,,,,,,,,,,,003,001,2023-11-09_18h02.29.403,untitled,2023.2.2,59.97693282221777,2023-11-09 18h02.39.495959 +0800,
,,,,,,,,,,,,,,,,,,,,,,,,,,,,,,,,,,,,,,,,,,,,,,,,,,,,,,,,,,,,,,,,,,,,,,,,,,,,,,,,300.21160977679347,300.2263330775338,300.2263330775338,312.5444391227977,space,12.302420341056859,None,,,,,,,,,,,,,,,,,,,,,,,,,,,,,,,,,,,,,,,,,,,,,,,,,,,,,,,003,001,2023-11-09_18h02.29.403,untitled,2023.2.2,59.97693282221777,2023-11-09 18h02.39.495959 +0800,
,,,,,,,,,,,,,,,,,,,,,,,,,,,,,,,,,,,,,,,,,,,,,,,,,,,,,,,,,,,,,,,,,,,,,,,,,,,,,,,,,,,,,,,312.54446676598195,312.56030390676324,312.56030390676324,322.4114591815335,space,9.849097660365032,None,,,,,,,,,,,,,,,,,,,,,,,,,,,,,,,,,,,,,,,,,,,,,,,,003,001,2023-11-09_18h02.29.403,untitled,2023.2.2,59.97693282221777,2023-11-09 18h02.39.495959 +0800,
8,test2/leftstar.PNG,left,,,,,,,,,0,0,0,5,,,,,322.552287984289,,,,,,,,,,,,,,,,,,,,,,,,,,,,,,,,,,,,,,,,,,,,,,,,,,,,,,,,,,,,,,,,,,,,,,,,,,,322.4212340518359,322.552287984289,322.92658090468944,322.92659953379166,323.42658420985276,323.9434675850614,323.71044245320036,323.71046198371096,325.0558413353342,325.0558413353342,325.85984094352193,330.67755938326854,left,5.618683006592846,None,,,,,,,,,,,,,,,,,,,,,,,,,,,,,,,,,003,001,2023-11-09_18h02.29.403,untitled,2023.2.2,59.97693282221777,2023-11-09 18h02.39.495959 +0800,
9,test2/rightstar.PNG,right,,,,,,,,,0,1,1,3,,,,,330.77633779490316,,,,,,,,,,,,,,,,,,,,,,,,,,,,,,,,,,,,,,,,,,,,,,,,,,,,,,,,,,,,,,,,,,,,,,,,,,,330.67840159897787,330.77633779490316,331.1936603361771,331.1936882798309,331.6930323551453,332.20099930110814,331.97740109599226,331.97742543401296,333.2969818450383,333.2969818450383,334.109699272203,352.17759123302426,right,18.864333561890362,None,,,,,,,,,,,,,,,,,,,,,,,,,,,,,,,,,003,001,2023-11-09_18h02.29.403,untitled,2023.2.2,59.97693282221777,2023-11-09 18h02.39.495959 +0800,
1,test2/leftstar.PNG,space,,,,,,,,,0,2,2,0,,,,,352.2986966238659,,,,,,,,,,,,,,,,,,,,,,,,,,,,,,,,,,,,,,,,,,,,,,,,,,,,,,,,,,,,,,,,,,,,,,,,,,,352.178252566159,352.2986966238659,352.6933250123343,352.6933430404979,353.1932498949859,353.70788395631666,353.47736323684876,353.4773866734613,354.7822026569909,354.7822026569909,,354.86115369430127,space,0.06724474974816985,None,,,,,,,,,,,,,,,,,,,,,,,,,,,,,,,,,003,001,2023-11-09_18h02.29.403,untitled,2023.2.2,59.97693282221777,2023-11-09 18h02.39.495959 +0800,
1,test2/blank.PNG,space,,,,,,,,,0,3,3,2,,,,,354.96143445290227,,,,,,,,,,,,,,,,,,,,,,,,,,,,,,,,,,,,,,,,,,,,,,,,,,,,,,,,,,,,,,,,,,,,,,,,,,,354.86167530916805,354.96143445290227,355.3767420464251,355.376761877405,355.87658490093236,356.2648361269976,356.16073279677516,356.1607526277551,357.4766445140599,357.4766445140599,358.27654541925403,360.01272277551993,space,2.532754769500798,None,,,,,,,,,,,,,,,,,,,,,,,,,,,,,,,,,003,001,2023-11-09_18h02.29.403,untitled,2023.2.2,59.97693282221777,2023-11-09 18h02.39.495959 +0800,
2,test2/leftstar.PNG,space,,,,,,,,,0,4,4,4,,,,,360.1126471774205,,,,,,,,,,,,,,,,,,,,,,,,,,,,,,,,,,,,,,,,,,,,,,,,,,,,,,,,,,,,,,,,,,,,,,,,,,,360.0141250661784,360.1126471774205,360.5265990530406,360.52661407651044,361.02656630187676,361.5521677965319,361.3105456343901,361.31056606630887,362.63398471091546,362.63398471091546,,363.3773688255794,space,0.7359378821595328,None,,,,,,,,,,,,,,,,,,,,,,,,,,,,,,,,,003,001,2023-11-09_18h02.29.403,untitled,2023.2.2,59.97693282221777,2023-11-09 18h02.39.495959 +0800,
8,test2/rightstar.PNG,right,,,,,,,,,0,5,5,1,,,,,363.4749931342744,,,,,,,,,,,,,,,,,,,,,,,,,,,,,,,,,,,,,,,,,,,,,,,,,,,,,,,,,,,,,,,,,,,,,,,,,,,363.3778739146294,363.4749931342744,363.8932867926276,363.893302417036,364.3932858912194,364.9041139067451,364.67720482938444,364.6772246603646,365.9976347049362,365.9976347049362,,366.52741663025995,right,0.516513797854941,None,,,,,,,,,,,,,,,,,,,,,,,,,,,,,,,,,003,001,2023-11-09_18h02.29.403,untitled,2023.2.2,59.97693282221777,2023-11-09 18h02.39.495959 +0800,
,,,,,,,,,,,,,,,,,,,,,,,,,,,,,,,,,,,,,,,,,,,,,,,,,,,,,,,,,,,,,,,,,,,,,,,,,,,,,,,,,,,,,,,,,,,,,,,,,,,,,,,,,,,,,366.52776817945005,366.5430434424659,366.5430434424659,367.54341993061576,368.14451345892553,space,1.5948771170321834,None,,,,,,,,,,,,,,,,,,,,,,,,,003,001,2023-11-09_18h02.29.403,untitled,2023.2.2,59.97693282221777,2023-11-09 18h02.39.495959 +0800,
,,,,,,,,,,,,,,,,,,,,,,,,,,,,,,,,,,,,,,,,,,,,,,,,,,,,,,,,,,,,,,,,,,,,,,,,,,,,,,,,,,,,,,,,,,,,,,,,,,,,,,,,,,,,,,,,,,,,,368.14456183449784,368.1600200833743,368.1600200833743,369.15988517261667,370.57804181692654,space,2.4013766305722584,None,,,,,,,,,,,,,,,,,003,001,2023-11-09_18h02.29.403,untitled,2023.2.2,59.97693282221777,2023-11-09 18h02.39.495959 +0800,
1,condition_2/leftstar.PNG,space,,,,,,,,,,,,,0,0,0,22,370.71719700516155,,,,,,,,,,,,,,,,,,,,,,,,,,,,,,,,,,,,,,,,,,,,,,,,,,,,,,,,,,,,,,,,,,,,,,,,,,,,,,,,,,,,,,,,,,,,,,,,,,,,,,,,,,370.61215891465645,370.71719700516155,371.09331107055436,371.09332549308533,371.5931337936124,372.1060942404224,371.8772723749041,371.8772934077617,373.2038177040172,373.2038177040172,374.00988694538614,375.5280010432298,space,1,2.3184038104327556,None,003,001,2023-11-09_18h02.29.403,untitled,2023.2.2,59.97693282221777,2023-11-09 18h02.39.495959 +0800,
1,condition_2/leftstar.PNG,space,,,,,,,,,,,,,0,1,1,16,375.63069457105894,,,,,,,,,,,,,,,,,,,,,,,,,,,,,,,,,,,,,,,,,,,,,,,,,,,,,,,,,,,,,,,,,,,,,,,,,,,,,,,,,,,,,,,,,,,,,,,,,,,,,,,,,,375.5292137377012,375.63069457105894,376.04318917012165,376.0432044940608,376.54328592126626,377.04703547882514,376.8272520331261,376.82727667161635,378.1480638052767,378.1480638052767,,378.8607186146198,space,1,0.7098231857808059,None,003,001,2023-11-09_18h02.29.403,untitled,2023.2.2,59.97693282221777,2023-11-09 18h02.39.495959 +0800,
9,condition_2/rightstar.PNG,right,,,,,,,,,,,,,0,2,2,7,378.9582461721702,,,,,,,,,,,,,,,,,,,,,,,,,,,,,,,,,,,,,,,,,,,,,,,,,,,,,,,,,,,,,,,,,,,,,,,,,,,,,,,,,,,,,,,,,,,,,,,,,,,,,,,,,,378.8613231590391,378.9582461721702,379.37649265682853,379.3765239056454,379.8765767882587,380.3805420828419,380.16049843064843,380.1605326841593,381.48095054093505,381.48095054093505,,381.91111364173116,right,1,0.41653350864726235,None,003,001,2023-11-09_18h02.29.403,untitled,2023.2.2,59.97693282221777,2023-11-09 18h02.39.495959 +0800,
9,condition_2/leftstar.PNG,left,,,,,,,,,,,,,0,3,3,3,382.02021077327004,,,,,,,,,,,,,,,,,,,,,,,,,,,,,,,,,,,,,,,,,,,,,,,,,,,,,,,,,,,,,,,,,,,,,,,,,,,,,,,,,,,,,,,,,,,,,,,,,,,,,,,,,,381.91192761331763,382.02021077327004,382.4266485103028,382.4266683412827,382.9267404539371,383.4370970329851,383.211047899028,383.21108034972235,384.53117880753325,384.53117880753325,385.34306123025385,386.4444311904058,space,0,1.9097419989507216,None,003,001,2023-11-09_18h02.29.403,untitled,2023.2.2,59.97693282221777,2023-11-09 18h02.39.495959 +0800,
8,condition_2/leftstar.PNG,left,,,,,,,,,,,,,0,4,4,2,386.54855194785296,,,,,,,,,,,,,,,,,,,,,,,,,,,,,,,,,,,,,,,,,,,,,,,,,,,,,,,,,,,,,,,,,,,,,,,,,,,,,,,,,,,,,,,,,,,,,,,,,,,,,,,,,,386.4451958850116,386.54855194785296,386.96000211530463,386.9600195425294,387.4599991106106,387.9778136404691,387.7439462928987,387.7439697295115,389.06307693879376,389.06307693879376,389.8765539525848,389.9107260362139,left,1,0.8417214372293529,None,003,001,2023-11-09_18h02.29.403,untitled,2023.2.2,59.97693282221777,2023-11-09 18h02.39.495959 +0800,
1,condition_2/leftstar.PNG,space,,,,,,,,,,,,,0,5,5,0,390.00517348201356,,,,,,,,,,,,,,,,,,,,,,,,,,,,,,,,,,,,,,,,,,,,,,,,,,,,,,,,,,,,,,,,,,,,,,,,,,,,,,,,,,,,,,,,,,,,,,,,,,,,,,,,,,389.91133779189863,390.00517348201356,390.4266710455074,390.4266893741403,390.9266995900998,391.4351436814593,391.2107417207162,391.21076786155345,392.51485881243684,392.51485881243684,393.32641252164126,394.7942950477236,space,1,2.2704702285911935,None,003,001,2023-11-09_18h02.29.403,untitled,2023.2.2,59.97693282221777,2023-11-09 18h02.39.495959 +0800,
8,condition_2/rightstar.PNG,right,,,,,,,,,,,,,0,6,6,14,394.8947608954709,,,,,,,,,,,,,,,,,,,,,,,,,,,,,,,,,,,,,,,,,,,,,,,,,,,,,,,,,,,,,,,,,,,,,,,,,,,,,,,,,,,,,,,,,,,,,,,,,,,,,,,,,,394.7947941273858,394.8947608954709,395.30989271439853,395.30990683645996,395.80998796319614,396.3167584400351,396.0939796149546,396.0940177745674,397.3994674480473,397.3994674480473,,397.8940415717434,right,1,0.48203072840397,None,003,001,2023-11-09_18h02.29.403,untitled,2023.2.2,59.97693282221777,2023-11-09 18h02.39.495959 +0800,
8,condition_2/blank.PNG,space,,,,,,,,,,,,,0,7,7,10,397.99160939219246,,,,,,,,,,,,,,,,,,,,,,,,,,,,,,,,,,,,,,,,,,,,,,,,,,,,,,,,,,,,,,,,,,,,,,,,,,,,,,,,,,,,,,,,,,,,,,,,,,,,,,,,,,397.8946325950401,397.99160939219246,398.4101124777128,398.41013290963156,398.910182186612,399.2938260150006,399.19404854263325,399.19407408253187,400.49353690335056,400.49353690335056,401.29356100099585,404.07783269022866,space,1,3.5810636376147613,None,003,001,2023-11-09_18h02.29.403,untitled,2023.2.2,59.97693282221777,2023-11-09 18h02.39.495959 +0800,
8,condition_2/leftstar.PNG,left,,,,,,,,,,,,,0,8,8,18,404.1765567169032,,,,,,,,,,,,,,,,,,,,,,,,,,,,,,,,,,,,,,,,,,,,,,,,,,,,,,,,,,,,,,,,,,,,,,,,,,,,,,,,,,,,,,,,,,,,,,,,,,,,,,,,,,404.07866769467273,404.1765567169032,404.593399408556,404.59341473249515,405.09329424426846,405.6043653395334,405.37769062829966,405.3777095578714,406.7031798074954,406.7031798074954,407.5097802787516,409.09451595282167,left,1,2.3778435672206797,None,003,001,2023-11-09_18h02.29.403,untitled,2023.2.2,59.97693282221777,2023-11-09 18h02.39.495959 +0800,
2,condition_2/rightstar.PNG,space,,,,,,,,,,,,,0,9,9,13,409.1968654431955,,,,,,,,,,,,,,,,,,,,,,,,,,,,,,,,,,,,,,,,,,,,,,,,,,,,,,,,,,,,,,,,,,,,,,,,,,,,,,,,,,,,,,,,,,,,,,,,,,,,,,,,,,409.09543298540984,409.1968654431955,409.61013765704797,409.61015868990535,410.11011512184336,410.6034437999042,410.39373779718676,410.3937522197177,411.7154344517005,411.7154344517005,,412.3772837927411,space,1,0.6462099091199889,None,003,001,2023-11-09_18h02.29.403,untitled,2023.2.2,59.97693282221777,2023-11-09 18h02.39.495959 +0800,
9,condition_2/blank.PNG,space,,,,,,,,,,,,,0,10,10,11,412.4774503729727,,,,,,,,,,,,,,,,,,,,,,,,,,,,,,,,,,,,,,,,,,,,,,,,,,,,,,,,,,,,,,,,,,,,,,,,,,,,,,,,,,,,,,,,,,,,,,,,,,,,,,,,,,412.37792619630386,412.4774503729727,412.8932585485045,412.8932726705659,413.39326966587214,413.7707568763924,413.6769569421351,413.67697286701286,414.9939737858483,414.9939737858483,415.79309347061985,416.794275517213,space,1,1.7841674263536333,None,003,001,2023-11-09_18h02.29.403,untitled,2023.2.2,59.97693282221777,2023-11-09 18h02.39.495959 +0800,
9,condition_2/leftstar.PNG,left,,,,,,,,,,,,,0,11,11,19,416.89311191944057,,,,,,,,,,,,,,,,,,,,,,,,,,,,,,,,,,,,,,,,,,,,,,,,,,,,,,,,,,,,,,,,,,,,,,,,,,,,,,,,,,,,,,,,,,,,,,,,,,,,,,,,,,416.79473313209905,416.89311191944057,417.3099750430122,417.3099906674206,417.8099798505225,418.3307774405175,418.09405863840493,418.09408117360954,419.4190150853665,419.4190150853665,,419.8607387460693,left,1,0.42977970185029335,None,003,001,2023-11-09_18h02.29.403,untitled,2023.2.2,59.97693282221777,2023-11-09 18h02.39.495959 +0800,
1,condition_2/blank.PNG,space,,,,,,,,,,,,,0,12,12,8,419.9604681433336,,,,,,,,,,,,,,,,,,,,,,,,,,,,,,,,,,,,,,,,,,,,,,,,,,,,,,,,,,,,,,,,,,,,,,,,,,,,,,,,,,,,,,,,,,,,,,,,,,,,,,,,,,419.8613213562228,419.9604681433336,420.3767083938528,420.3767276238941,420.8768072482833,421.2488069862741,421.1611083835169,421.1611390313949,422.46019381477754,422.46019381477754,423.2599234524175,424.7278128892958,space,1,2.252790008551301,None,003,001,2023-11-09_18h02.29.403,untitled,2023.2.2,59.97693282221777,2023-11-09 18h02.39.495959 +0800,
2,condition_2/blank.PNG,space,,,,,,,,,,,,,0,13,13,9,424.8249486347572,,,,,,,,,,,,,,,,,,,,,,,,,,,,,,,,,,,,,,,,,,,,,,,,,,,,,,,,,,,,,,,,,,,,,,,,,,,,,,,,,,,,,,,,,,,,,,,,,,,,,,,,,,424.72827170605933,424.8249486347572,425.24314854665954,425.24316357012935,425.74329307243784,426.0973280458734,426.02741542838226,426.027435860301,427.34372496714377,427.34372496714377,,427.644098210224,space,1,0.2975043613132584,None,003,001,2023-11-09_18h02.29.403,untitled,2023.2.2,59.97693282221777,2023-11-09 18h02.39.495959 +0800,
2,condition_2/rightstar.PNG,space,,,,,,,,,,,,,0,14,14,5,427.7444627997859,,,,,,,,,,,,,,,,,,,,,,,,,,,,,,,,,,,,,,,,,,,,,,,,,,,,,,,,,,,,,,,,,,,,,,,,,,,,,,,,,,,,,,,,,,,,,,,,,,,,,,,,,,427.64468532741853,427.7444627997859,428.16004472186455,428.1600606467423,428.6600390129461,429.1715971690976,428.94390386662053,428.94392700276376,430.2703695713444,430.2703695713444,,430.7441656355559,space,1,0.459245232902731,None,003,001,2023-11-09_18h02.29.403,untitled,2023.2.2,59.97693282221777,2023-11-09 18h02.39.495959 +0800,
8,condition_2/rightstar.PNG,right,,,,,,,,,,,,,0,15,15,6,430.8412908645887,,,,,,,,,,,,,,,,,,,,,,,,,,,,,,,,,,,,,,,,,,,,,,,,,,,,,,,,,,,,,,,,,,,,,,,,,,,,,,,,,,,,,,,,,,,,,,,,,,,,,,,,,,430.7446956635656,430.8412908645887,431.2599700251733,431.25998444770426,431.7600502505013,432.26489892510085,432.04407134826033,432.04409568628125,433.3650955522719,433.3650955522719,,433.910781923521,right,1,0.5317575115846012,None,003,001,2023-11-09_18h02.29.403,untitled,2023.2.2,59.97693282221777,2023-11-09 18h02.39.495959 +0800,
1,condition_2/rightstar.PNG,space,,,,,,,,,,,,,0,16,16,12,434.00653400742635,,,,,,,,,,,,,,,,,,,,,,,,,,,,,,,,,,,,,,,,,,,,,,,,,,,,,,,,,,,,,,,,,,,,,,,,,,,,,,,,,,,,,,,,,,,,,,,,,,,,,,,,,,433.91136874024596,434.00653400742635,434.42675006895774,434.42676809712134,434.9103080832879,435.4217169061508,435.19468042976746,435.1947140823395,436.51561299061404,436.51561299061404,,437.2442067998627,right,0,0.7258081575034794,None,003,001,2023-11-09_18h02.29.403,untitled,2023.2.2,59.97693282221777,2023-11-09 18h02.39.495959 +0800,
2,condition_2/leftstar.PNG,space,,,,,,,,,,,,,0,17,17,17,437.34345123952653,,,,,,,,,,,,,,,,,,,,,,,,,,,,,,,,,,,,,,,,,,,,,,,,,,,,,,,,,,,,,,,,,,,,,,,,,,,,,,,,,,,,,,,,,,,,,,,,,,,,,,,,,,437.2447954194042,437.34345123952653,437.7606244475119,437.76066951792086,438.2437407718339,438.75455706905336,438.52837783184896,438.52842470507426,439.84896365101577,439.84896365101577,440.66035510674783,441.2460408650395,space,1,1.3928258725782143,None,003,001,2023-11-09_18h02.29.403,untitled,2023.2.2,59.97693282221777,2023-11-09 18h02.39.495959 +0800,
9,condition_2/leftstar.PNG,left,,,,,,,,,,,,,0,18,18,20,441.3478495105053,,,,,,,,,,,,,,,,,,,,,,,,,,,,,,,,,,,,,,,,,,,,,,,,,,,,,,,,,,,,,,,,,,,,,,,,,,,,,,,,,,,,,,,,,,,,,,,,,,,,,,,,,,441.24746899606566,441.3478495105053,441.76014279507444,441.7601569171361,442.25982730221153,442.76755206984353,442.54389196803254,442.5439111980736,443.8639633835978,443.8639633835978,,444.1625857915235,left,1,0.28895931223769367,None,003,001,2023-11-09_18h02.29.403,untitled,2023.2.2,59.97693282221777,2023-11-09 18h02.39.495959 +0800,
1,condition_2/rightstar.PNG,space,,,,,,,,,,,,,0,19,19,4,444.2751175886972,,,,,,,,,,,,,,,,,,,,,,,,,,,,,,,,,,,,,,,,,,,,,,,,,,,,,,,,,,,,,,,,,,,,,,,,,,,,,,,,,,,,,,,,,,,,,,,,,,,,,,,,,,444.16424107741113,444.2751175886972,444.67670394690595,444.6767225760084,445.1767532238864,445.68885042212946,445.46115201167277,445.4611859647141,446.78226275086945,446.78226275086945,447.59313679830643,448.2279982789114,space,1,1.443001557032403,None,003,001,2023-11-09_18h02.29.403,untitled,2023.2.2,59.97693282221777,2023-11-09 18h02.39.495959 +0800,
9,condition_2/rightstar.PNG,right,,,,,,,,,,,,,0,20,20,15,448.3293105489397,,,,,,,,,,,,,,,,,,,,,,,,,,,,,,,,,,,,,,,,,,,,,,,,,,,,,,,,,,,,,,,,,,,,,,,,,,,,,,,,,,,,,,,,,,,,,,,,,,,,,,,,,,448.2288425979066,448.3293105489397,448.7433002837033,448.7433156076422,449.2434012414194,449.74820604748743,449.5274541889339,449.527477926016,450.8473305998632,450.8473305998632,,451.3108196624769,right,1,0.45022934828784855,None,003,001,2023-11-09_18h02.29.403,untitled,2023.2.2,59.97693282221777,2023-11-09 18h02.39.495959 +0800,
8,condition_2/blank.PNG,space,,,,,,,,,,,,,0,21,21,24,451.4100358580174,,,,,,,,,,,,,,,,,,,,,,,,,,,,,,,,,,,,,,,,,,,,,,,,,,,,,,,,,,,,,,,,,,,,,,,,,,,,,,,,,,,,,,,,,,,,,,,,,,,,,,,,,,451.31140888295704,451.4100358580174,451.826700972259,451.82671839948375,452.32673943234136,452.70459682115415,452.61055200434134,452.6105652249946,453.9266229704044,453.9266229704044,454.7266028990489,455.444793556494,space,1,1.5144486717149448,None,003,001,2023-11-09_18h02.29.403,untitled,2023.2.2,59.97693282221777,2023-11-09 18h02.39.495959 +0800,
2,condition_2/rightstar.PNG,space,,,,,,,,,,,,,0,22,22,21,455.54525880330266,,,,,,,,,,,,,,,,,,,,,,,,,,,,,,,,,,,,,,,,,,,,,,,,,,,,,,,,,,,,,,,,,,,,,,,,,,,,,,,,,,,,,,,,,,,,,,,,,,,,,,,,,,455.4457451430626,455.54525880330266,455.9600574016729,455.96007212467316,456.45994682893615,456.9757503171454,456.74385735395845,456.7438798891628,458.0659103651726,458.0659103651726,,458.47930456959875,space,1,0.3989797862220712,None,003,001,2023-11-09_18h02.29.403,untitled,2023.2.2,59.97693282221777,2023-11-09 18h02.39.495959 +0800,
2,condition_2/leftstar.PNG,space,,,,,,,,,,,,,0,23,23,1,458.58411790899754,,,,,,,,,,,,,,,,,,,,,,,,,,,,,,,,,,,,,,,,,,,,,,,,,,,,,,,,,,,,,,,,,,,,,,,,,,,,,,,,,,,,,,,,,,,,,,,,,,,,,,,,,,458.4809947099359,458.58411790899754,458.993207288426,458.99326557948825,459.49333649026516,459.9978264044091,459.77745704339327,459.7774801795365,461.0978355386785,461.0978355386785,461.90987480642275,464.24462655560524,space,1,3.143551055458829,None,003,001,2023-11-09_18h02.29.403,untitled,2023.2.2,59.97693282221777,2023-11-09 18h02.39.495959 +0800,
8,condition_2/rightstar.PNG,right,,,,,,,,,,,,,0,24,24,23,464.34657011182867,,,,,,,,,,,,,,,,,,,,,,,,,,,,,,,,,,,,,,,,,,,,,,,,,,,,,,,,,,,,,,,,,,,,,,,,,,,,,,,,,,,,,,,,,,,,,,,,,,,,,,,,,,464.24548980417217,464.34657011182867,464.7600472458075,464.7600619688078,465.26007218476707,465.767692989989,465.54395536707443,465.5439770008709,466.86421127084736,466.86421127084736,467.67660599388364,468.2445962081965,right,1,1.369140170774699,None,003,001,2023-11-09_18h02.29.403,untitled,2023.2.2,59.97693282221777,2023-11-09 18h02.39.495959 +0800,
1,condition_2/rightstar.PNG,space,,,,,,,,,,,,,1,0,25,12,468.35069195096594,,,,,,,,,,,,,,,,,,,,,,,,,,,,,,,,,,,,,,,,,,,,,,,,,,,,,,,,,,,,,,,,,,,,,,,,,,,,,,,,,,,,,,,,,,,,,,,,,,,,,,,,,,468.24546366333493,468.35069195096594,468.75998444770426,468.7600012739904,469.2603152645063,469.77381385199965,469.5446004748619,469.5446338269646,470.86554745823923,470.86554745823923,471.6770563975042,472.3291585114266,space,1,1.4559842385774573,None,003,001,2023-11-09_18h02.29.403,untitled,2023.2.2,59.97693282221777,2023-11-09 18h02.39.495959 +0800,
1,condition_2/rightstar.PNG,space,,,,,,,,,,,,,1,1,26,4,472.43237185130624,,,,,,,,,,,,,,,,,,,,,,,,,,,,,,,,,,,,,,,,,,,,,,,,,,,,,,,,,,,,,,,,,,,,,,,,,,,,,,,,,,,,,,,,,,,,,,,,,,,,,,,,,,472.3306851964139,472.43237185130624,472.84339595315805,472.843411878036,473.34343050713824,473.84836631786175,473.62749637483694,473.62752101332717,474.947330720051,474.947330720051,475.7598074712316,476.44402615766353,space,1,1.486341262319911,None,003,001,2023-11-09_18h02.29.403,untitled,2023.2.2,59.97693282221777,2023-11-09 18h02.39.495959 +0800,
1,condition_2/leftstar.PNG,space,,,,,,,,,,,,,1,2,27,16,476.5415365884585,,,,,,,,,,,,,,,,,,,,,,,,,,,,,,,,,,,,,,,,,,,,,,,,,,,,,,,,,,,,,,,,,,,,,,,,,,,,,,,,,,,,,,,,,,,,,,,,,,,,,,,,,,476.4445216316931,476.5415365884585,476.9600604063669,476.96007512936717,477.4600814392245,477.95861304529944,477.7438825933875,477.74390422718375,479.0646619148433,479.0646619148433,479.8765055770125,481.0948966475428,space,1,2.0249212319486105,None,003,001,2023-11-09_18h02.29.403,untitled,2023.2.2,59.97693282221777,2023-11-09 18h02.39.495959 +0800,
8,condition_2/rightstar.PNG,right,,,,,,,,,,,,,1,3,28,14,481.2000828694588,,,,,,,,,,,,,,,,,,,,,,,,,,,,,,,,,,,,,,,,,,,,,,,,,,,,,,,,,,,,,,,,,,,,,,,,,,,,,,,,,,,,,,,,,,,,,,,,,,,,,,,,,,481.09580406511054,481.2000828694588,481.60988976979843,481.6099243237786,482.11000905614765,482.613666670072,482.39393971261916,482.39396104594607,483.71576707131885,483.71576707131885,484.52649509063053,484.87778858132174,space,0,1.1496583963466946,None,003,001,2023-11-09_18h02.29.403,untitled,2023.2.2,59.97693282221777,2023-11-09 18h02.39.495959 +0800,
8,condition_2/leftstar.PNG,left,,,,,,,,,,,,,1,4,29,18,484.9801233486953,,,,,,,,,,,,,,,,,,,,,,,,,,,,,,,,,,,,,,,,,,,,,,,,,,,,,,,,,,,,,,,,,,,,,,,,,,,,,,,,,,,,,,,,,,,,,,,,,,,,,,,,,,484.8786148721533,484.9801233486953,485.39333937477136,485.39335409777163,485.8934532526714,486.40184055531563,486.1773929232247,486.17744009691955,487.49721915576515,487.49721915576515,,487.8107857094353,left,1,0.3045831197496227,None,003,001,2023-11-09_18h02.29.403,untitled,2023.2.2,59.97693282221777,2023-11-09 18h02.39.495959 +0800,
9,condition_2/leftstar.PNG,left,,,,,,,,,,,,,1,5,30,19,487.91085223335904,,,,,,,,,,,,,,,,,,,,,,,,,,,,,,,,,,,,,,,,,,,,,,,,,,,,,,,,,,,,,,,,,,,,,,,,,,,,,,,,,,,,,,,,,,,,,,,,,,,,,,,,,,487.81136982193584,487.91085223335904,488.32675926332126,488.326776690546,488.82666281264596,489.3363147909665,489.1108852248983,489.1109122671437,490.4143301665863,490.4143301665863,,491.0116284659896,left,1,0.5951805911195152,None,003,001,2023-11-09_18h02.29.403,untitled,2023.2.2,59.97693282221777,2023-11-09 18h02.39.495959 +0800,
1,condition_2/blank.PNG,space,,,,,,,,,,,,,1,6,31,8,491.11928454631834,,,,,,,,,,,,,,,,,,,,,,,,,,,,,,,,,,,,,,,,,,,,,,,,,,,,,,,,,,,,,,,,,,,,,,,,,,,,,,,,,,,,,,,,,,,,,,,,,,,,,,,,,,491.01259147039514,491.11928454631834,491.5267330623901,491.52674898726787,492.0266480295518,492.3993947344543,492.31082657327283,492.31085091129376,493.62692698533647,493.62692698533647,494.4269123224301,496.39537896101297,space,1,2.765681647870224,None,003,001,2023-11-09_18h02.29.403,untitled,2023.2.2,59.97693282221777,2023-11-09 18h02.39.495959 +0800,
2,condition_2/leftstar.PNG,space,,,,,,,,,,,,,1,7,32,17,496.49780897718415,,,,,,,,,,,,,,,,,,,,,,,,,,,,,,,,,,,,,,,,,,,,,,,,,,,,,,,,,,,,,,,,,,,,,,,,,,,,,,,,,,,,,,,,,,,,,,,,,,,,,,,,,,496.3964970076254,496.49780897718415,496.91001091905787,496.9100253415886,497.4100163275068,497.91944325425175,497.69399986659164,497.69401969757155,499.0173800511159,499.0173800511159,,499.4108747685634,left,0,0.3838015748201542,None,003,001,2023-11-09_18h02.29.403,untitled,2023.2.2,59.97693282221777,2023-11-09 18h02.39.495959 +0800,
2,condition_2/rightstar.PNG,space,,,,,,,,,,,,,1,8,33,5,499.5080721102506,,,,,,,,,,,,,,,,,,,,,,,,,,,,,,,,,,,,,,,,,,,,,,,,,,,,,,,,,,,,,,,,,,,,,,,,,,,,,,,,,,,,,,,,,,,,,,,,,,,,,,,,,,499.4114736040642,499.5080721102506,499.92678642575447,499.92680415344853,500.4267825196523,500.93066428374414,500.7109766877818,500.7110040304965,502.0304162162131,502.0304162162131,,502.51125227830926,space,1,0.475082974623092,None,003,001,2023-11-09_18h02.29.403,untitled,2023.2.2,59.97693282221777,2023-11-09 18h02.39.495959 +0800,
8,condition_2/rightstar.PNG,right,,,,,,,,,,,,,1,9,34,6,502.6098846618188,,,,,,,,,,,,,,,,,,,,,,,,,,,,,,,,,,,,,,,,,,,,,,,,,,,,,,,,,,,,,,,,,,,,,,,,,,,,,,,,,,,,,,,,,,,,,,,,,,,,,,,,,,502.51202869122153,502.6098846618188,503.0265107150392,503.0265257385088,503.5266366117148,504.0342844591821,503.8105600569211,503.81058259212546,505.13034452421584,505.13034452421584,,505.52963289250465,right,1,0.39120363832375915,None,003,001,2023-11-09_18h02.29.403,untitled,2023.2.2,59.97693282221777,2023-11-09 18h02.39.495959 +0800,
9,condition_2/rightstar.PNG,right,,,,,,,,,,,,,1,10,35,7,505.6447844823183,,,,,,,,,,,,,,,,,,,,,,,,,,,,,,,,,,,,,,,,,,,,,,,,,,,,,,,,,,,,,,,,,,,,,,,,,,,,,,,,,,,,,,,,,,,,,,,,,,,,,,,,,,505.53148408443667,505.6447844823183,506.0434115174726,506.043427141881,506.54338687898235,507.03633065575036,506.8270840707353,506.82709849326625,508.14762572090126,508.14762572090126,508.96016527018514,509.67810203099293,right,1,1.5270891186212339,None,003,001,2023-11-09_18h02.29.403,untitled,2023.2.2,59.97693282221777,2023-11-09 18h02.39.495959 +0800,
2,condition_2/blank.PNG,space,,,,,,,,,,,,,1,11,36,9,509.7859338859166,,,,,,,,,,,,,,,,,,,,,,,,,,,,,,,,,,,,,,,,,,,,,,,,,,,,,,,,,,,,,,,,,,,,,,,,,,,,,,,,,,,,,,,,,,,,,,,,,,,,,,,,,,509.679088472011,509.7859338859166,510.19346893717375,510.1934878667455,510.6935182141542,511.05764445216323,510.9777926076117,510.97782445736743,512.2934964000763,512.2934964000763,513.0933170799424,514.2614095740366,space,1,1.9647645551881396,None,003,001,2023-11-09_18h02.29.403,untitled,2023.2.2,59.97693282221777,2023-11-09 18h02.39.495959 +0800,
2,condition_2/rightstar.PNG,space,,,,,,,,,,,,,1,12,37,13,514.3647974866337,,,,,,,,,,,,,,,,,,,,,,,,,,,,,,,,,,,,,,,,,,,,,,,,,,,,,,,,,,,,,,,,,,,,,,,,,,,,,,,,,,,,,,,,,,,,,,,,,,,,,,,,,,514.2622577991337,514.3647974866337,514.7765895882549,514.7766244427044,515.2767848933604,515.7920868981523,515.5607840568537,515.5608129019154,516.8843679596266,516.8843679596266,,517.3961214208837,right,0,0.5086970865886542,None,003,001,2023-11-09_18h02.29.403,untitled,2023.2.2,59.97693282221777,2023-11-09 18h02.39.495959 +0800,
8,condition_2/blank.PNG,space,,,,,,,,,,,,,1,13,38,24,517.5146980613115,,,,,,,,,,,,,,,,,,,,,,,,,,,,,,,,,,,,,,,,,,,,,,,,,,,,,,,,,,,,,,,,,,,,,,,,,,,,,,,,,,,,,,,,,,,,,,,,,,,,,,,,,,517.3984629788656,517.5146980613115,517.9101347124479,517.9101536420196,518.4100223368948,518.780225568383,518.6942300261469,518.6942570683923,520.0100588138791,520.0100588138791,520.8101096533005,523.3610133750947,space,1,3.3434377184037203,None,003,001,2023-11-09_18h02.29.403,untitled,2023.2.2,59.97693282221777,2023-11-09 18h02.39.495959 +0800,
9,condition_2/blank.PNG,space,,,,,,,,,,,,,1,14,39,11,523.4613548285131,,,,,,,,,,,,,,,,,,,,,,,,,,,,,,,,,,,,,,,,,,,,,,,,,,,,,,,,,,,,,,,,,,,,,,,,,,,,,,,,,,,,,,,,,,,,,,,,,,,,,,,,,,523.3615028397362,523.4613548285131,523.8767901215278,523.876805445467,524.3767471544047,524.748352376082,524.6607120643871,524.6607330972445,525.9767298473676,525.9767298473676,526.7767115788286,527.0780081643545,space,1,1.0977102429415027,None,003,001,2023-11-09_18h02.29.403,untitled,2023.2.2,59.97693282221777,2023-11-09 18h02.39.495959 +0800,
2,condition_2/leftstar.PNG,space,,,,,,,,,,,,,1,15,40,1,527.1764647732689,,,,,,,,,,,,,,,,,,,,,,,,,,,,,,,,,,,,,,,,,,,,,,,,,,,,,,,,,,,,,,,,,,,,,,,,,,,,,,,,,,,,,,,,,,,,,,,,,,,,,,,,,,527.0788068120019,527.1764647732689,527.5933594461269,527.5933747700658,528.093448986006,528.6082909721567,528.3774087880088,528.3774331260295,529.7111128004169,529.7111128004169,530.5105317527041,530.7629819303718,space,1,1.0495735437900748,None,003,001,2023-11-09_18h02.29.403,untitled,2023.2.2,59.97693282221777,2023-11-09 18h02.39.495959 +0800,
8,condition_2/blank.PNG,space,,,,,,,,,,,,,1,16,41,10,530.861932811438,,,,,,,,,,,,,,,,,,,,,,,,,,,,,,,,,,,,,,,,,,,,,,,,,,,,,,,,,,,,,,,,,,,,,,,,,,,,,,,,,,,,,,,,,,,,,,,,,,,,,,,,,,530.764665159913,530.861932811438,531.2768038229322,531.2768200482794,531.77666620795,532.1565779060047,532.0605935592582,532.0606151930547,533.3767372389148,533.3767372389148,534.1772162472214,535.6772943692638,space,1,2.288758598682989,None,003,001,2023-11-09_18h02.29.403,untitled,2023.2.2,59.97693282221777,2023-11-09 18h02.39.495959 +0800,
1,condition_2/leftstar.PNG,space,,,,,,,,,,,,,1,17,42,22,535.775125100432,,,,,,,,,,,,,,,,,,,,,,,,,,,,,,,,,,,,,,,,,,,,,,,,,,,,,,,,,,,,,,,,,,,,,,,,,,,,,,,,,,,,,,,,,,,,,,,,,,,,,,,,,,535.6777910451708,535.775125100432,536.1934280733362,536.1934421953977,536.6767294868043,537.193955096652,536.960659542337,536.9606805751946,538.284495538931,538.284495538931,539.093326694963,540.12784642168,space,1,1.8292372344076284,None,003,001,2023-11-09_18h02.29.403,untitled,2023.2.2,59.97693282221777,2023-11-09 18h02.39.495959 +0800,
9,condition_2/leftstar.PNG,left,,,,,,,,,,,,,1,18,43,20,540.2302524002998,,,,,,,,,,,,,,,,,,,,,,,,,,,,,,,,,,,,,,,,,,,,,,,,,,,,,,,,,,,,,,,,,,,,,,,,,,,,,,,,,,,,,,,,,,,,,,,,,,,,,,,,,,540.1283346844441,540.2302524002998,540.6433740789862,540.6433882010476,541.1434062292112,541.6501048938653,541.4274612800116,541.4274955335225,542.7482348925491,542.7482348925491,543.5600659350036,545.8446416992626,left,1,3.092991972058826,None,003,001,2023-11-09_18h02.29.403,untitled,2023.2.2,59.97693282221777,2023-11-09 18h02.39.495959 +0800,
8,condition_2/leftstar.PNG,left,,,,,,,,,,,,,1,19,44,2,545.9538424927423,,,,,,,,,,,,,,,,,,,,,,,,,,,,,,,,,,,,,,,,,,,,,,,,,,,,,,,,,,,,,,,,,,,,,,,,,,,,,,,,,,,,,,,,,,,,,,,,,,,,,,,,,,545.8454809102782,545.9538424927423,546.3602009058552,546.3602225396514,546.860212924631,547.3648275335729,547.1443641256371,547.1443914683518,548.46476365378,548.46476365378,549.2766860389302,549.7281740535063,left,1,1.2482030427934205,None,003,001,2023-11-09_18h02.29.403,untitled,2023.2.2,59.97693282221777,2023-11-09 18h02.39.495959 +0800,
8,condition_2/rightstar.PNG,right,,,,,,,,,,,,,1,20,45,23,549.8384958982924,,,,,,,,,,,,,,,,,,,,,,,,,,,,,,,,,,,,,,,,,,,,,,,,,,,,,,,,,,,,,,,,,,,,,,,,,,,,,,,,,,,,,,,,,,,,,,,,,,,,,,,,,,549.7291848325456,549.8384958982924,550.2435018986662,550.2435232319931,550.7436283962807,551.251481764813,551.0280244798425,551.028057831945,552.3484624680677,552.3484624680677,553.1603091349307,553.4285841341343,right,1,1.0695845049135642,None,003,001,2023-11-09_18h02.29.403,untitled,2023.2.2,59.97693282221777,2023-11-09 18h02.39.495959 +0800,
2,condition_2/rightstar.PNG,space,,,,,,,,,,,,,1,21,46,21,553.5386445705481,,,,,,,,,,,,,,,,,,,,,,,,,,,,,,,,,,,,,,,,,,,,,,,,,,,,,,,,,,,,,,,,,,,,,,,,,,,,,,,,,,,,,,,,,,,,,,,,,,,,,,,,,,553.4297625750949,553.5386445705481,553.9434591719184,553.9434762986739,554.4436364488604,554.9427061956189,554.727682485579,554.7277119315795,556.0484155347485,556.0484155347485,556.8603463330414,556.878723942543,space,1,0.8259344748366857,None,003,001,2023-11-09_18h02.29.403,untitled,2023.2.2,59.97693282221777,2023-11-09 18h02.39.495959 +0800,
9,condition_2/leftstar.PNG,left,,,,,,,,,,,,,1,22,47,3,556.9857718728197,,,,,,,,,,,,,,,,,,,,,,,,,,,,,,,,,,,,,,,,,,,,,,,,,,,,,,,,,,,,,,,,,,,,,,,,,,,,,,,,,,,,,,,,,,,,,,,,,,,,,,,,,,556.8799291252797,556.9857718728197,557.3934189991605,557.3934337221608,557.8934220038545,558.4010337949946,558.177349655632,558.1773697870815,559.4968700103302,559.4968700103302,560.3099504045219,560.3610371121767,left,1,0.8570084185514588,None,003,001,2023-11-09_18h02.29.403,untitled,2023.2.2,59.97693282221777,2023-11-09 18h02.39.495959 +0800,
1,condition_2/leftstar.PNG,space,,,,,,,,,,,,,1,23,48,0,560.4605916362543,,,,,,,,,,,,,,,,,,,,,,,,,,,,,,,,,,,,,,,,,,,,,,,,,,,,,,,,,,,,,,,,,,,,,,,,,,,,,,,,,,,,,,,,,,,,,,,,,,,,,,,,,,560.3617789711088,560.4605916362543,560.8767600745887,560.8767775018134,561.376728224833,561.883440711079,561.6608905432067,561.6609148812274,562.9807254893594,562.9807254893594,563.7934948977293,564.4280462939205,space,1,1.444083847786942,None,003,001,2023-11-09_18h02.29.403,untitled,2023.2.2,59.97693282221777,2023-11-09 18h02.39.495959 +0800,
9,condition_2/rightstar.PNG,right,,,,,,,,,,,,,1,24,49,15,564.5333692294103,,,,,,,,,,,,,,,,,,,,,,,,,,,,,,,,,,,,,,,,,,,,,,,,,,,,,,,,,,,,,,,,,,,,,,,,,,,,,,,,,,,,,,,,,,,,,,,,,,,,,,,,,,564.4288419368738,564.5333692294103,564.9433513034062,564.9433675287535,565.4433612188961,565.9488066257106,565.7273934340226,565.7274159692272,567.0474227838731,567.0474227838731,,567.6943586270472,right,1,0.6422019478829952,None,003,001,2023-11-09_18h02.29.403,untitled,2023.2.2,59.97693282221777,2023-11-09 18h02.39.495959 +0800,
