stimuli,star,CorrectAns,trials_3.thisRepN,trials_3.thisTrialN,trials_3.thisN,trials_3.thisIndex,trials.thisRepN,trials.thisTrialN,trials.thisN,trials.thisIndex,trials_4.thisRepN,trials_4.thisTrialN,trials_4.thisN,trials_4.thisIndex,trials_2.thisRepN,trials_2.thisTrialN,trials_2.thisN,trials_2.thisIndex,thisRow.t,notes,routine_21.started,text_9.started,key_resp_8.started,routine_21.stopped,key_resp_8.keys,key_resp_8.rt,key_resp_8.duration,introduction.started,text_6.started,key_resp_5.started,introduction.stopped,key_resp_5.keys,key_resp_5.rt,key_resp_5.duration,routine_14.started,image_6.started,routine_14.stopped,routine_16.started,text_4.started,text_4.stopped,routine_16.stopped,routine_17.started,image_7.started,key_resp_3.started,image_7.stopped,routine_17.stopped,key_resp_3.keys,key_resp_3.rt,key_resp_3.duration,routine_20.started,text_8.started,key_resp_7.started,routine_20.stopped,key_resp_7.keys,key_resp_7.rt,key_resp_7.duration,routine_18.started,text_5.started,key_resp_4.started,routine_18.stopped,key_resp_4.keys,key_resp_4.rt,key_resp_4.duration,trial.started,image_3.started,trial.stopped,routine.started,text_3.started,text_3.stopped,routine.stopped,routine_1.started,image_2.started,key_resp.started,image_2.stopped,routine_1.stopped,key_resp.keys,key_resp.corr,key_resp.rt,key_resp.duration,routine_22.started,text_10.started,key_resp_9.started,routine_22.stopped,key_resp_9.keys,key_resp_9.rt,key_resp_9.duration,routine_19.started,text_7.started,key_resp_6.started,routine_19.stopped,key_resp_6.keys,key_resp_6.rt,key_resp_6.duration,routine_23.started,image_8.started,routine_23.stopped,routine_24.started,text_11.started,text_11.stopped,routine_24.stopped,routine_25.started,image_9.started,key_resp_10.started,image_9.stopped,routine_25.stopped,key_resp_10.keys,key_resp_10.rt,key_resp_10.duration,routine_26.started,text_12.started,key_resp_11.started,text_12.stopped,routine_26.stopped,key_resp_11.keys,key_resp_11.rt,key_resp_11.duration,routine_27.started,text_13.started,key_resp_12.started,text_13.stopped,routine_27.stopped,key_resp_12.keys,key_resp_12.rt,key_resp_12.duration,routine_10.started,image_4.started,routine_10.stopped,routine_11.started,text.started,text.stopped,routine_11.stopped,routine_12.started,image_5.started,key_resp_2.started,routine_12.stopped,key_resp_2.keys,key_resp_2.corr,key_resp_2.rt,key_resp_2.duration,image_5.stopped,participant,session,date,expName,psychopyVersion,frameRate,expStart,
,,,,,,,,,,,,,,,,,,,,,0.005839019965378611,0.020096288393006034,0.020096288393006034,3.5526739213978544,space,3.525076717324737,None,,,,,,,,,,,,,,,,,,,,,,,,,,,,,,,,,,,,,,,,,,,,,,,,,,,,,,,,,,,,,,,,,,,,,,,,,,,,,,,,,,,,,,,,,,,,,,,,,,,,,,,,,,,,,,,,,,006,001,2023-11-09_18h05.23.696,untitled,2023.2.2,59.96668444462856,2023-11-09 18h05.54.516793 +0800,
,,,,,,,,,,,,,,,,,,,,,,,,,,,,3.5526985598808096,3.569199733063215,3.569199733063215,22.83766815388958,space,19.2544749644469,None,,,,,,,,,,,,,,,,,,,,,,,,,,,,,,,,,,,,,,,,,,,,,,,,,,,,,,,,,,,,,,,,,,,,,,,,,,,,,,,,,,,,,,,,,,,,,,,,,,,,,,,,,,,006,001,2023-11-09_18h05.23.696,untitled,2023.2.2,59.96668444462856,2023-11-09 18h05.54.516793 +0800,
8,test/rightstar.PNG,space,0,0,0,5,,,,,,,,,,,,,22.987816871171162,,,,,,,,,,,,,,,,22.862849284297226,22.987816871171162,23.352207112288852,23.35222303716182,23.852135450360038,24.365319592671767,24.136459035367352,24.136483373380997,25.46403036903348,25.46403036903348,26.268579293999437,26.353243731384055,right,0.8876755604578648,None,,,,,,,,,,,,,,,,,,,,,,,,,,,,,,,,,,,,,,,,,,,,,,,,,,,,,,,,,,,,,,,,,,,,,,,,,,,,,,,,,,,,,,,,,,,,006,001,2023-11-09_18h05.23.696,untitled,2023.2.2,59.96668444462856,2023-11-09 18h05.54.516793 +0800,
1,test/leftstar.PNG,left,0,1,1,0,,,,,,,,,,,,,26.453998900883334,,,,,,,,,,,,,,,,26.355446171375206,26.453998900883334,26.868827722018978,26.868843045953554,27.36883057647742,27.87207068720636,27.652707664100717,27.652719382403347,28.973412973723725,28.973412973723725,29.785317086757914,29.869544341306664,left,0.8826060423775743,None,,,,,,,,,,,,,,,,,,,,,,,,,,,,,,,,,,,,,,,,,,,,,,,,,,,,,,,,,,,,,,,,,,,,,,,,,,,,,,,,,,,,,,,,,,,,006,001,2023-11-09_18h05.23.696,untitled,2023.2.2,59.96668444462856,2023-11-09 18h05.54.516793 +0800,
9,test/rightstar.PNG,space,0,2,2,3,,,,,,,,,,,,,29.967569146249616,,,,,,,,,,,,,,,,29.870022988906385,29.967569146249616,30.385525852829687,30.385541176764036,30.868883909778788,31.39155567080229,31.153275701317853,31.153304546371146,32.47345729294602,32.47345729294602,33.285490006841655,39.52075777156347,space,7.03070886417504,None,,,,,,,,,,,,,,,,,,,,,,,,,,,,,,,,,,,,,,,,,,,,,,,,,,,,,,,,,,,,,,,,,,,,,,,,,,,,,,,,,,,,,,,,,,,,006,001,2023-11-09_18h05.23.696,untitled,2023.2.2,59.96668444462856,2023-11-09 18h05.54.516793 +0800,
1,test/blank.PNG,space,0,3,3,2,,,,,,,,,,,,,39.634721872092086,,,,,,,,,,,,,,,,39.521848174664,39.634721872092086,40.03544906789921,40.035462889487235,40.5354831711652,40.935813747492375,40.81960874690185,40.819630681161016,42.135751129689424,42.135751129689424,,42.619515421136384,left,0.4723674907838813,None,,,,,,,,,,,,,,,,,,,,,,,,,,,,,,,,,,,,,,,,,,,,,,,,,,,,,,,,,,,,,,,,,,,,,,,,,,,,,,,,,,,,,,,,,,,,006,001,2023-11-09_18h05.23.696,untitled,2023.2.2,59.96668444462856,2023-11-09 18h05.54.516793 +0800,
2,test/leftstar.PNG,left,0,4,4,4,,,,,,,,,,,,,42.71940133294197,,,,,,,,,,,,,,,,42.61996552415235,42.71940133294197,43.13558617204217,43.135606003016164,43.618818031884075,44.114110429079346,43.90271465001183,43.902726668784,45.223652522875454,45.223652522875454,,45.95423371764355,left,0.7200761869964936,None,,,,,,,,,,,,,,,,,,,,,,,,,,,,,,,,,,,,,,,,,,,,,,,,,,,,,,,,,,,,,,,,,,,,,,,,,,,,,,,,,,,,,,,,,,,,006,001,2023-11-09_18h05.23.696,untitled,2023.2.2,59.96668444462856,2023-11-09 18h05.54.516793 +0800,
8,test/rightstar.PNG,space,0,5,5,1,,,,,,,,,,,,,46.067368522896004,,,,,,,,,,,,,,,,45.955344252187615,46.067368522896004,46.468932225242725,46.4689613707651,46.96874217840855,47.47317725555558,47.252901106237914,47.25292274002777,48.5739741902878,48.5739741902878,,49.10454589022606,right,0.5224211696247494,None,,,,,,,,,,,,,,,,,,,,,,,,,,,,,,,,,,,,,,,,,,,,,,,,,,,,,,,,,,,,,,,,,,,,,,,,,,,,,,,,,,,,,,,,,,,,006,001,2023-11-09_18h05.23.696,untitled,2023.2.2,59.96668444462856,2023-11-09 18h05.54.516793 +0800,
,,,,,,,,,,,,,,,,,,,,,,,,,,,,,,,,,,,,,,,,,,,,,,,,,,49.10535295077398,49.118570294943765,49.118570294943765,84.82006365742654,space,35.69003015810404,None,,,,,,,,,,,,,,,,,,,,,,,,,,,,,,,,,,,,,,,,,,,,,,,,,,,,,,,,,,,,,,,,,,,,,,,,,,,,,,,,,,,,,006,001,2023-11-09_18h05.23.696,untitled,2023.2.2,59.96668444462856,2023-11-09 18h05.54.516793 +0800,
,,,,,,,,,,,,,,,,,,,,,,,,,,,,,,,,,,,,,,,,,,,,,,,,,,,,,,,,,84.82011083110706,84.83547863407853,84.83547863407853,97.03667948969496,space,12.19756667939646,None,,,,,,,,,,,,,,,,,,,,,,,,,,,,,,,,,,,,,,,,,,,,,,,,,,,,,,,,,,,,,,,,,,,,,,,,,,,,,,006,001,2023-11-09_18h05.23.696,untitled,2023.2.2,59.96668444462856,2023-11-09 18h05.54.516793 +0800,
9,condition_1/rightstar.PNG,space,,,,,0,0,0,15,,,,,,,,,97.18318321386187,,,,,,,,,,,,,,,,,,,,,,,,,,,,,,,,,,,,,,,,,,,,,97.06045051766364,97.18318321386187,97.552167330153,97.5521835554955,98.0356678095518,98.54876181107284,98.32002084055102,98.32005178888903,99.66296839032884,99.66296839032884,100.46858368085122,103.75347515284125,space,1,4.081940683153107,None,,,,,,,,,,,,,,,,,,,,,,,,,,,,,,,,,,,,,,,,,,,,,,,,,,,,,,,,,,,,,,006,001,2023-11-09_18h05.23.696,untitled,2023.2.2,59.96668444462856,2023-11-09 18h05.54.516793 +0800,
1,condition_1/leftstar.PNG,left,,,,,0,1,1,0,,,,,,,,,103.87388792555089,,,,,,,,,,,,,,,,,,,,,,,,,,,,,,,,,,,,,,,,,,,,,103.75483657925315,103.87388792555089,104.26877550045424,104.2687911248579,104.76901001674514,105.27767089416966,105.05327651258517,105.05330535763824,106.37287669611169,106.37287669611169,,106.87025495120838,left,1,0.49196830529604085,None,,,,,,,,,,,,,,,,,,,,,,,,,,,,,,,,,,,,,,,,,,,,,,,,,,,,,,,,,,,,,,006,001,2023-11-09_18h05.23.696,untitled,2023.2.2,59.96668444462856,2023-11-09 18h05.54.516793 +0800,
8,condition_1/rightstar.PNG,space,,,,,0,2,2,6,,,,,,,,,106.9812741520982,,,,,,,,,,,,,,,,,,,,,,,,,,,,,,,,,,,,,,,,,,,,,106.87123988958365,106.9812741520982,107.38555559929068,107.38557062275572,107.8855046697438,108.39072517364889,108.16961792623897,108.16964256472193,109.49044522639929,109.49044522639929,110.30193949930413,112.3367837224962,space,1,2.837790444895745,None,,,,,,,,,,,,,,,,,,,,,,,,,,,,,,,,,,,,,,,,,,,,,,,,,,,,,,,,,,,,,,006,001,2023-11-09_18h05.23.696,untitled,2023.2.2,59.96668444462856,2023-11-09 18h05.54.516793 +0800,
8,condition_1/blank.PNG,space,,,,,0,3,3,10,,,,,,,,,112.44958680963805,,,,,,,,,,,,,,,,,,,,,,,,,,,,,,,,,,,,,,,,,,,,,112.33776805993284,112.44958680963805,112.85208256776264,112.85209789169721,113.35238258636173,113.72878829443721,113.63571973064745,113.63573174941939,114.95253937124403,114.95253937124403,,115.65309166386987,space,1,0.6949644649978381,None,,,,,,,,,,,,,,,,,,,,,,,,,,,,,,,,,,,,,,,,,,,,,,,,,,,,,,,,,,,,,,006,001,2023-11-09_18h05.23.696,untitled,2023.2.2,59.96668444462856,2023-11-09 18h05.54.516793 +0800,
8,condition_1/rightstar.PNG,space,,,,,0,4,4,23,,,,,,,,,115.76236994561805,,,,,,,,,,,,,,,,,,,,,,,,,,,,,,,,,,,,,,,,,,,,,115.65377553200346,115.76236994561805,116.16895689377247,116.16897582333854,116.66914934436113,117.18479012369426,116.95359732365978,116.9536339809149,118.27355987316605,118.27355987316605,119.085745525937,120.17011760668993,space,1,1.8941362514110551,None,,,,,,,,,,,,,,,,,,,,,,,,,,,,,,,,,,,,,,,,,,,,,,,,,,,,,,,,,,,,,,006,001,2023-11-09_18h05.23.696,untitled,2023.2.2,59.96668444462856,2023-11-09 18h05.54.516793 +0800,
2,condition_1/leftstar.PNG,left,,,,,0,5,5,22,,,,,,,,,120.26855345363924,,,,,,,,,,,,,,,,,,,,,,,,,,,,,,,,,,,,,,,,,,,,,120.17055298670994,120.26855345363924,120.685569691301,120.68558711852052,121.18570895882294,121.69131496484374,121.46951723897564,121.4695427788663,122.78971114984506,122.78971114984506,,123.42019670523405,left,1,0.6187293934394802,None,,,,,,,,,,,,,,,,,,,,,,,,,,,,,,,,,,,,,,,,,,,,,,,,,,,,,,,,,,,,,,006,001,2023-11-09_18h05.23.696,untitled,2023.2.2,59.96668444462856,2023-11-09 18h05.54.516793 +0800,
2,condition_1/leftstar.PNG,left,,,,,0,6,6,1,,,,,,,,,123.53074266697172,,,,,,,,,,,,,,,,,,,,,,,,,,,,,,,,,,,,,,,,,,,,,123.42119035721907,123.53074266697172,123.93557006688752,123.9355862922298,124.43584334371872,124.94776701730439,124.72036073142658,124.72039889102803,126.03997563794906,126.03997563794906,,126.50394681452963,left,1,0.44747090480632323,None,,,,,,,,,,,,,,,,,,,,,,,,,,,,,,,,,,,,,,,,,,,,,,,,,,,,,,,,,,,,,,006,001,2023-11-09_18h05.23.696,untitled,2023.2.2,59.96668444462856,2023-11-09 18h05.54.516793 +0800,
9,condition_1/leftstar.PNG,space,,,,,0,7,7,24,,,,,,,,,126.61793765682637,,,,,,,,,,,,,,,,,,,,,,,,,,,,,,,,,,,,,,,,,,,,,126.50503180918281,126.61793765682637,127.01889471165009,127.01890973511536,127.51892761303884,128.02727419957228,127.80299850336246,127.8030228413761,129.12360225436123,129.12360225436123,129.93533089332232,130.02001486121185,space,1,0.8929536042344353,None,,,,,,,,,,,,,,,,,,,,,,,,,,,,,,,,,,,,,,,,,,,,,,,,,,,,,,,,,,,,,,006,001,2023-11-09_18h05.23.696,untitled,2023.2.2,59.96668444462856,2023-11-09 18h05.54.516793 +0800,
1,condition_1/leftstar.PNG,left,,,,,0,8,8,16,,,,,,,,,130.13260371374054,,,,,,,,,,,,,,,,,,,,,,,,,,,,,,,,,,,,,,,,,,,,,130.02078135840384,130.13260371374054,130.53571723675213,130.53573105834016,131.03577928366326,131.55021097452118,131.3194066812955,131.31942561086157,132.63978748407135,132.63978748407135,,133.23626562327695,space,0,0.5842496395118815,None,,,,,,,,,,,,,,,,,,,,,,,,,,,,,,,,,,,,,,,,,,,,,,,,,,,,,,,,,,,,,,006,001,2023-11-09_18h05.23.696,untitled,2023.2.2,59.96668444462856,2023-11-09 18h05.54.516793 +0800,
1,condition_1/rightstar.PNG,right,,,,,0,9,9,12,,,,,,,,,133.33934432189653,,,,,,,,,,,,,,,,,,,,,,,,,,,,,,,,,,,,,,,,,,,,,133.23684312527735,133.33934432189653,133.75228890003314,133.75230963241484,134.2521796794415,134.76686767061483,134.53666641928044,134.53669736761844,135.8404111381567,135.8404111381567,,136.3528993935629,right,1,0.5039930868022111,None,,,,,,,,,,,,,,,,,,,,,,,,,,,,,,,,,,,,,,,,,,,,,,,,,,,,,,,,,,,,,,006,001,2023-11-09_18h05.23.696,untitled,2023.2.2,59.96668444462856,2023-11-09 18h05.54.516793 +0800,
2,condition_1/rightstar.PNG,left,,,,,0,10,10,5,,,,,,,,,136.45164262060916,,,,,,,,,,,,,,,,,,,,,,,,,,,,,,,,,,,,,,,,,,,,,136.353337778276,136.45164262060916,136.86887940273914,136.8688941257351,137.35230686809746,137.85858111784796,137.6363197678454,137.63634500726698,138.95663146268157,138.95663146268157,,139.4369253336788,right,0,0.4768111313060217,None,,,,,,,,,,,,,,,,,,,,,,,,,,,,,,,,,,,,,,,,,,,,,,,,,,,,,,,,,,,,,,006,001,2023-11-09_18h05.23.696,untitled,2023.2.2,59.96668444462856,2023-11-09 18h05.54.516793 +0800,
2,condition_1/rightstar.PNG,right,,,,,0,11,11,13,,,,,,,,,139.54993784792464,,,,,,,,,,,,,,,,,,,,,,,,,,,,,,,,,,,,,,,,,,,,,139.4380112297397,139.54993784792464,139.95226143713876,139.9522767610731,140.45220509914452,140.96020043706267,140.7361594073784,140.7362023744888,142.0567679658859,142.0567679658859,,142.45302447893368,right,1,0.39252228054988336,None,,,,,,,,,,,,,,,,,,,,,,,,,,,,,,,,,,,,,,,,,,,,,,,,,,,,,,,,,,,,,,006,001,2023-11-09_18h05.23.696,untitled,2023.2.2,59.96668444462856,2023-11-09 18h05.54.516793 +0800,
9,condition_1/leftstar.PNG,space,,,,,0,12,12,3,,,,,,,,,142.55442325367994,,,,,,,,,,,,,,,,,,,,,,,,,,,,,,,,,,,,,,,,,,,,,142.45360077905684,142.55442325367994,142.96891945529728,142.96893207500807,143.4524145262485,143.96180704642597,143.7366801206806,143.73671046808022,145.0737396739969,145.0737396739969,145.88541062285185,150.57008882173068,space,1,5.486524702933593,None,,,,,,,,,,,,,,,,,,,,,,,,,,,,,,,,,,,,,,,,,,,,,,,,,,,,,,,,,,,,,,006,001,2023-11-09_18h05.23.696,untitled,2023.2.2,59.96668444462856,2023-11-09 18h05.54.516793 +0800,
9,condition_1/blank.PNG,space,,,,,0,13,13,11,,,,,,,,,150.6802510841685,,,,,,,,,,,,,,,,,,,,,,,,,,,,,,,,,,,,,,,,,,,,,150.57089017336193,150.6802510841685,151.0854498641429,151.08547269981,151.58563330065226,151.97218225145866,151.8696546135409,151.86967865108522,153.1856747053223,153.1856747053223,153.9857499428358,155.80385363899882,space,1,2.6073118603949297,None,,,,,,,,,,,,,,,,,,,,,,,,,,,,,,,,,,,,,,,,,,,,,,,,,,,,,,,,,,,,,,006,001,2023-11-09_18h05.23.696,untitled,2023.2.2,59.96668444462856,2023-11-09 18h05.54.516793 +0800,
1,condition_1/rightstar.PNG,right,,,,,0,14,14,21,,,,,,,,,155.91756324202788,,,,,,,,,,,,,,,,,,,,,,,,,,,,,,,,,,,,,,,,,,,,,155.8049218073711,155.91756324202788,156.31876998684243,156.31878110420666,156.81924307576014,157.3505950944782,157.1030029803551,157.10302882071505,158.42751102947705,158.42751102947705,,158.97044884404954,right,1,0.5409150552247866,None,,,,,,,,,,,,,,,,,,,,,,,,,,,,,,,,,,,,,,,,,,,,,,,,,,,,,,,,,,,,,,006,001,2023-11-09_18h05.23.696,untitled,2023.2.2,59.96668444462856,2023-11-09 18h05.54.516793 +0800,
8,condition_1/rightstar.PNG,space,,,,,0,15,15,14,,,,,,,,,159.07934613072166,,,,,,,,,,,,,,,,,,,,,,,,,,,,,,,,,,,,,,,,,,,,,158.97140253361727,159.07934613072166,159.48561638423053,159.48563741708176,159.98558408378062,160.49012342377569,160.26959007273467,160.26961260793246,161.59066826476283,161.59066826476283,162.40251679097582,162.45467044977568,space,1,0.8494252172467895,None,,,,,,,,,,,,,,,,,,,,,,,,,,,,,,,,,,,,,,,,,,,,,,,,,,,,,,,,,,,,,,006,001,2023-11-09_18h05.23.696,untitled,2023.2.2,59.96668444462856,2023-11-09 18h05.54.516793 +0800,
2,condition_1/leftstar.PNG,left,,,,,0,16,16,17,,,,,,,,,162.5550527368698,,,,,,,,,,,,,,,,,,,,,,,,,,,,,,,,,,,,,,,,,,,,,162.45583506879393,162.5550527368698,162.96874578404027,162.96875870422014,163.46905331437188,163.9855603467056,163.75321404501688,163.75324198866224,165.07281573089017,165.07281573089017,,165.66943989817696,left,1,0.5834699216707122,None,,,,,,,,,,,,,,,,,,,,,,,,,,,,,,,,,,,,,,,,,,,,,,,,,,,,,,,,,,,,,,006,001,2023-11-09_18h05.23.696,untitled,2023.2.2,59.96668444462856,2023-11-09 18h05.54.516793 +0800,
8,condition_1/leftstar.PNG,space,,,,,0,17,17,2,,,,,,,,,165.76885407317695,,,,,,,,,,,,,,,,,,,,,,,,,,,,,,,,,,,,,,,,,,,,,165.6699362734655,165.76885407317695,166.18545956930143,166.18547639558233,166.66901773880636,167.16508805102694,166.95252314590175,166.9525381693668,168.27378943171357,168.27378943171357,169.08578608929292,169.81981156368147,space,1,1.5350883545008855,None,,,,,,,,,,,,,,,,,,,,,,,,,,,,,,,,,,,,,,,,,,,,,,,,,,,,,,,,,,,,,,006,001,2023-11-09_18h05.23.696,untitled,2023.2.2,59.96668444462856,2023-11-09 18h05.54.516793 +0800,
1,condition_1/blank.PNG,space,,,,,0,18,18,8,,,,,,,,,169.92330641228546,,,,,,,,,,,,,,,,,,,,,,,,,,,,,,,,,,,,,,,,,,,,,169.82054500925005,169.92330641228546,170.3353258454381,170.33533816467957,170.83570849309535,171.2296369699834,171.11987763688103,171.11990167442536,172.43572075224301,172.43572075224301,173.23539606511417,174.33728700857887,space,1,1.8925449659823244,None,,,,,,,,,,,,,,,,,,,,,,,,,,,,,,,,,,,,,,,,,,,,,,,,,,,,,,,,,,,,,,006,001,2023-11-09_18h05.23.696,untitled,2023.2.2,59.96668444462856,2023-11-09 18h05.54.516793 +0800,
9,condition_1/rightstar.PNG,space,,,,,0,19,19,7,,,,,,,,,174.45330872289446,,,,,,,,,,,,,,,,,,,,,,,,,,,,,,,,,,,,,,,,,,,,,174.33845763698332,174.45330872289446,174.8524368210708,174.8524560511064,175.3521725583189,175.86963658538275,175.63632727957793,175.63635131712226,176.96271145902801,176.96271145902801,177.76860017661602,178.71998093822754,space,1,1.7416841364527045,None,,,,,,,,,,,,,,,,,,,,,,,,,,,,,,,,,,,,,,,,,,,,,,,,,,,,,,,,,,,,,,006,001,2023-11-09_18h05.23.696,untitled,2023.2.2,59.96668444462856,2023-11-09 18h05.54.516793 +0800,
8,condition_1/leftstar.PNG,space,,,,,0,20,20,18,,,,,,,,,178.82784881706743,,,,,,,,,,,,,,,,,,,,,,,,,,,,,,,,,,,,,,,,,,,,,178.72079400816142,178.82784881706743,179.235364215368,179.23540147356152,179.73559091945708,180.2322696820163,180.0194827300761,180.01949474884827,181.34028809597726,181.34028809597726,182.15238270654936,182.43750403755644,space,1,1.0923366205674938,None,,,,,,,,,,,,,,,,,,,,,,,,,,,,,,,,,,,,,,,,,,,,,,,,,,,,,,,,,,,,,,006,001,2023-11-09_18h05.23.696,untitled,2023.2.2,59.96668444462856,2023-11-09 18h05.54.516793 +0800,
2,condition_1/blank.PNG,space,,,,,0,21,21,20,,,,,,,,,182.55210603441515,,,,,,,,,,,,,,,,,,,,,,,,,,,,,,,,,,,,,,,,,,,,,182.43867676924606,182.55210603441515,182.9523720098423,182.9523888361232,183.4524331553455,183.83983784272664,183.73702656178693,183.73707043030527,185.0520196494906,185.0520196494906,185.8521471686629,187.1868426295032,space,1,2.131840221241646,None,,,,,,,,,,,,,,,,,,,,,,,,,,,,,,,,,,,,,,,,,,,,,,,,,,,,,,,,,,,,,,006,001,2023-11-09_18h05.23.696,untitled,2023.2.2,59.96668444462856,2023-11-09 18h05.54.516793 +0800,
9,condition_1/leftstar.PNG,space,,,,,0,22,22,19,,,,,,,,,187.29779061916815,,,,,,,,,,,,,,,,,,,,,,,,,,,,,,,,,,,,,,,,,,,,,187.18775906087717,187.29779061916815,187.70220337144588,187.70221839491114,188.2023086859367,188.72388253212694,188.48662596108875,188.48665480614181,189.81097536241873,189.81097536241873,190.61890667032844,193.22025782069022,space,1,3.4059169016086344,None,,,,,,,,,,,,,,,,,,,,,,,,,,,,,,,,,,,,,,,,,,,,,,,,,,,,,,,,,,,,,,006,001,2023-11-09_18h05.23.696,untitled,2023.2.2,59.96668444462856,2023-11-09 18h05.54.516793 +0800,
2,condition_1/blank.PNG,space,,,,,0,23,23,9,,,,,,,,,193.33300502054158,,,,,,,,,,,,,,,,,,,,,,,,,,,,,,,,,,,,,,,,,,,,,193.22125597971467,193.33300502054158,193.73543677870475,193.73545150170048,194.23573799918108,194.59162555996227,194.51914094624408,194.51915446736257,195.83533230552803,195.83533230552803,196.63593066009798,198.5036998287626,space,1,2.6613924288344606,None,,,,,,,,,,,,,,,,,,,,,,,,,,,,,,,,,,,,,,,,,,,,,,,,,,,,,,,,,,,,,,006,001,2023-11-09_18h05.23.696,untitled,2023.2.2,59.96668444462856,2023-11-09 18h05.54.516793 +0800,
1,condition_1/rightstar.PNG,right,,,,,0,24,24,4,,,,,,,,,198.61541281327322,,,,,,,,,,,,,,,,,,,,,,,,,,,,,,,,,,,,,,,,,,,,,198.50473825067388,198.61541281327322,199.01891995107167,199.01893557547533,199.5191289274719,200.03753282251546,199.8033882120485,199.80341855944812,201.12421040423033,201.12421040423033,,201.60301605076984,right,1,0.4673060853747302,None,,,,,,,,,,,,,,,,,,,,,,,,,,,,,,,,,,,,,,,,,,,,,,,,,,,,,,,,,,,,,,006,001,2023-11-09_18h05.23.696,untitled,2023.2.2,59.96668444462856,2023-11-09 18h05.54.516793 +0800,
8,condition_1/leftstar.PNG,space,,,,,1,0,25,2,,,,,,,,,201.70519814898898,,,,,,,,,,,,,,,,,,,,,,,,,,,,,,,,,,,,,,,,,,,,,201.60356500818625,201.70519814898898,202.11888638865048,202.11890201305437,202.6188751210516,203.13553328944477,202.9036761517816,202.90371491232168,204.20738992231963,204.20738992231963,205.01879585724942,205.30340038105533,space,1,1.0806084022635787,None,,,,,,,,,,,,,,,,,,,,,,,,,,,,,,,,,,,,,,,,,,,,,,,,,,,,,,,,,,,,,,006,001,2023-11-09_18h05.23.696,untitled,2023.2.2,59.96668444462856,2023-11-09 18h05.54.516793 +0800,
2,condition_1/blank.PNG,space,,,,,1,1,26,9,,,,,,,,,205.41292715091708,,,,,,,,,,,,,,,,,,,,,,,,,,,,,,,,,,,,,,,,,,,,,205.30427534766568,205.41292715091708,205.81895432475994,205.81897085057153,206.31909960166786,206.6855967335382,206.60338953411338,206.603419881513,207.919074602622,207.919074602622,208.71870604697483,211.50365806352943,space,1,3.577562394704273,None,,,,,,,,,,,,,,,,,,,,,,,,,,,,,,,,,,,,,,,,,,,,,,,,,,,,,,,,,,,,,,006,001,2023-11-09_18h05.23.696,untitled,2023.2.2,59.96668444462856,2023-11-09 18h05.54.516793 +0800,
1,condition_1/blank.PNG,space,,,,,1,2,27,8,,,,,,,,,211.61667208012204,,,,,,,,,,,,,,,,,,,,,,,,,,,,,,,,,,,,,,,,,,,,,211.5046427014354,211.61667208012204,212.01961854220121,212.01965549992542,212.5192611339653,212.88720412412158,212.80389239953888,212.80393416477204,214.11885964688258,214.11885964688258,,214.48628372655253,space,1,0.3539627544259929,None,,,,,,,,,,,,,,,,,,,,,,,,,,,,,,,,,,,,,,,,,,,,,,,,,,,,,,,,,,,,,,006,001,2023-11-09_18h05.23.696,untitled,2023.2.2,59.96668444462856,2023-11-09 18h05.54.516793 +0800,
1,condition_1/leftstar.PNG,left,,,,,1,3,28,16,,,,,,,,,214.59002075341482,,,,,,,,,,,,,,,,,,,,,,,,,,,,,,,,,,,,,,,,,,,,,214.4867903177974,214.59002075341482,215.0021850127714,215.00219913482874,215.4856551447706,216.00633900088565,215.7700604574286,215.7700905043589,217.09679979159455,217.09679979159455,,217.55292571467385,left,1,0.4476280502517511,None,,,,,,,,,,,,,,,,,,,,,,,,,,,,,,,,,,,,,,,,,,,,,,,,,,,,,,,,,,,,,,006,001,2023-11-09_18h05.23.696,untitled,2023.2.2,59.96668444462856,2023-11-09 18h05.54.516793 +0800,
8,condition_1/rightstar.PNG,space,,,,,1,4,29,14,,,,,,,,,217.65541068595053,,,,,,,,,,,,,,,,,,,,,,,,,,,,,,,,,,,,,,,,,,,,,217.55348639039312,217.65541068595053,218.06883571450248,218.068851939845,218.5524065037182,219.06667203505162,218.83683705579756,218.83687040789005,220.15715746424348,220.15715746424348,220.96896182146907,226.50410245762873,space,1,6.339653204339811,None,,,,,,,,,,,,,,,,,,,,,,,,,,,,,,,,,,,,,,,,,,,,,,,,,,,,,,,,,,,,,,006,001,2023-11-09_18h05.23.696,untitled,2023.2.2,59.96668444462856,2023-11-09 18h05.54.516793 +0800,
2,condition_1/leftstar.PNG,left,,,,,1,5,30,1,,,,,,,,,226.61853468933123,,,,,,,,,,,,,,,,,,,,,,,,,,,,,,,,,,,,,,,,,,,,,226.505186550874,226.61853468933123,227.01884904031613,227.01886376331208,227.51899551910128,228.03146093884038,227.80299459726143,227.8030195362137,229.12363740926958,229.12363740926958,,229.50411087076918,left,1,0.36379501142846493,None,,,,,,,,,,,,,,,,,,,,,,,,,,,,,,,,,,,,,,,,,,,,,,,,,,,,,,,,,,,,,,006,001,2023-11-09_18h05.23.696,untitled,2023.2.2,59.96668444462856,2023-11-09 18h05.54.516793 +0800,
8,condition_1/rightstar.PNG,space,,,,,1,6,31,23,,,,,,,,,229.61501619379305,,,,,,,,,,,,,,,,,,,,,,,,,,,,,,,,,,,,,,,,,,,,,229.50527849448054,229.61501619379305,230.01886346284277,230.0188784863078,230.51917279599002,231.02941384147903,230.80336387403486,230.80339422143447,232.1231130903359,232.1231130903359,232.9354372594555,233.22016888177654,space,1,1.0939582533960674,None,,,,,,,,,,,,,,,,,,,,,,,,,,,,,,,,,,,,,,,,,,,,,,,,,,,,,,,,,,,,,,006,001,2023-11-09_18h05.23.696,untitled,2023.2.2,59.96668444462856,2023-11-09 18h05.54.516793 +0800,
9,condition_1/blank.PNG,space,,,,,1,7,32,11,,,,,,,,,233.3295294921138,,,,,,,,,,,,,,,,,,,,,,,,,,,,,,,,,,,,,,,,,,,,,233.22101530380314,233.3295294921138,233.73551700400867,233.73553292888164,234.23557844998118,234.62694242136808,234.5197034247792,234.51972716185423,235.8357394414336,235.8357394414336,236.63537869798847,237.17034626382952,space,1,1.3319503732882367,None,,,,,,,,,,,,,,,,,,,,,,,,,,,,,,,,,,,,,,,,,,,,,,,,,,,,,,,,,,,,,,006,001,2023-11-09_18h05.23.696,untitled,2023.2.2,59.96668444462856,2023-11-09 18h05.54.516793 +0800,
2,condition_1/rightstar.PNG,right,,,,,1,8,33,13,,,,,,,,,237.28313552938334,,,,,,,,,,,,,,,,,,,,,,,,,,,,,,,,,,,,,,,,,,,,,237.17132098624847,237.28313552938334,237.6856862733905,237.68570490248726,238.18562903398833,238.69402099138642,238.469714947777,238.46973988672926,239.78855223974324,239.78855223974324,,240.2196397553339,right,1,0.4196294191897323,None,,,,,,,,,,,,,,,,,,,,,,,,,,,,,,,,,,,,,,,,,,,,,,,,,,,,,,,,,,,,,,006,001,2023-11-09_18h05.23.696,untitled,2023.2.2,59.96668444462856,2023-11-09 18h05.54.516793 +0800,
2,condition_1/leftstar.PNG,left,,,,,1,9,34,22,,,,,,,,,240.31807379946736,,,,,,,,,,,,,,,,,,,,,,,,,,,,,,,,,,,,,,,,,,,,,240.22016948271516,240.31807379946736,240.73555606501805,240.73557229036032,241.23563674102593,241.73921818488293,241.51978094585934,241.51980648575022,242.82376333595448,242.82376333595448,,243.3041176012814,left,1,0.4636713082163624,None,,,,,,,,,,,,,,,,,,,,,,,,,,,,,,,,,,,,,,,,,,,,,,,,,,,,,,,,,,,,,,006,001,2023-11-09_18h05.23.696,untitled,2023.2.2,59.96668444462856,2023-11-09 18h05.54.516793 +0800,
1,condition_1/leftstar.PNG,left,,,,,1,10,35,0,,,,,,,,,243.4165664351151,,,,,,,,,,,,,,,,,,,,,,,,,,,,,,,,,,,,,,,,,,,,,243.30532608881822,243.4165664351151,243.8188768036798,243.81889092573692,244.31885652200185,244.8260685364471,244.60297338412875,244.60299621979584,245.92361980176838,245.92361980176838,,246.48758355675727,left,1,0.5482245719590537,None,,,,,,,,,,,,,,,,,,,,,,,,,,,,,,,,,,,,,,,,,,,,,,,,,,,,,,,,,,,,,,006,001,2023-11-09_18h05.23.696,untitled,2023.2.2,59.96668444462856,2023-11-09 18h05.54.516793 +0800,
9,condition_1/leftstar.PNG,space,,,,,1,11,36,19,,,,,,,,,246.60234660516267,,,,,,,,,,,,,,,,,,,,,,,,,,,,,,,,,,,,,,,,,,,,,246.4888761756988,246.60234660516267,247.0021781019775,247.00219222403484,247.50247691869936,248.00881727169667,247.78661902024783,247.78664666342365,249.1074129683152,249.1074129683152,,249.80468834272256,space,1,0.6929945882473021,None,,,,,,,,,,,,,,,,,,,,,,,,,,,,,,,,,,,,,,,,,,,,,,,,,,,,,,,,,,,,,,006,001,2023-11-09_18h05.23.696,untitled,2023.2.2,59.96668444462856,2023-11-09 18h05.54.516793 +0800,
2,condition_1/blank.PNG,space,,,,,1,12,37,20,,,,,,,,,249.9140288216165,,,,,,,,,,,,,,,,,,,,,,,,,,,,,,,,,,,,,,,,,,,,,249.80608161888063,249.9140288216165,250.31899323553466,250.31901036228487,250.81906189277038,251.20422628102847,251.1032193182532,251.10324996612212,252.41888515672645,252.41888515672645,253.21900666651254,253.25415796933225,space,1,0.8292688349933997,None,,,,,,,,,,,,,,,,,,,,,,,,,,,,,,,,,,,,,,,,,,,,,,,,,,,,,,,,,,,,,,006,001,2023-11-09_18h05.23.696,untitled,2023.2.2,59.96668444462856,2023-11-09 18h05.54.516793 +0800,
9,condition_1/leftstar.PNG,space,,,,,1,13,38,24,,,,,,,,,253.35218998553842,,,,,,,,,,,,,,,,,,,,,,,,,,,,,,,,,,,,,,,,,,,,,253.25535984654448,253.35218998553842,253.76893610129673,253.768952326639,254.26895247687366,254.77853248989595,254.55310239062396,254.553126127699,255.87378546551872,255.87378546551872,256.6859954563033,258.5530107474865,space,1,2.6631757141481103,None,,,,,,,,,,,,,,,,,,,,,,,,,,,,,,,,,,,,,,,,,,,,,,,,,,,,,,,,,,,,,,006,001,2023-11-09_18h05.23.696,untitled,2023.2.2,59.96668444462856,2023-11-09 18h05.54.516793 +0800,
8,condition_1/blank.PNG,space,,,,,1,14,39,10,,,,,,,,,258.6534648467441,,,,,,,,,,,,,,,,,,,,,,,,,,,,,,,,,,,,,,,,,,,,,258.5534590476866,258.6534648467441,259.06893096327167,259.06894718861395,259.55241071028854,259.90924234561976,259.8366591779702,259.83668772255396,261.1528292039336,261.1528292039336,261.9522154653355,262.6700961231347,space,1,1.5038635845326098,None,,,,,,,,,,,,,,,,,,,,,,,,,,,,,,,,,,,,,,,,,,,,,,,,,,,,,,,,,,,,,,006,001,2023-11-09_18h05.23.696,untitled,2023.2.2,59.96668444462856,2023-11-09 18h05.54.516793 +0800,
8,condition_1/leftstar.PNG,space,,,,,1,15,40,18,,,,,,,,,262.7759271205696,,,,,,,,,,,,,,,,,,,,,,,,,,,,,,,,,,,,,,,,,,,,,262.6709710897451,262.7759271205696,263.1856323391505,263.185648564493,263.6856397006486,264.1866773713864,263.96943986813017,263.96945308877935,265.29577927765376,265.29577927765376,266.10214213580207,267.75399015722655,space,1,2.4482953925735274,None,,,,,,,,,,,,,,,,,,,,,,,,,,,,,,,,,,,,,,,,,,,,,,,,,,,,,,,,,,,,,,006,001,2023-11-09_18h05.23.696,untitled,2023.2.2,59.96668444462856,2023-11-09 18h05.54.516793 +0800,
9,condition_1/rightstar.PNG,space,,,,,1,16,41,15,,,,,,,,,267.8628958570391,,,,,,,,,,,,,,,,,,,,,,,,,,,,,,,,,,,,,,,,,,,,,267.7550733490639,267.8628958570391,268.26889178207443,268.26890860835556,268.7689976975039,269.27607269794703,269.0530093953746,269.05303343291894,270.37408338083264,270.37408338083264,271.18546978525774,271.2030223005313,space,1,0.8261211185752018,None,,,,,,,,,,,,,,,,,,,,,,,,,,,,,,,,,,,,,,,,,,,,,,,,,,,,,,,,,,,,,,006,001,2023-11-09_18h05.23.696,untitled,2023.2.2,59.96668444462856,2023-11-09 18h05.54.516793 +0800,
9,condition_1/rightstar.PNG,space,,,,,1,17,42,7,,,,,,,,,271.306744003459,,,,,,,,,,,,,,,,,,,,,,,,,,,,,,,,,,,,,,,,,,,,,271.20360100440894,271.306744003459,271.7188400562841,271.71885327693326,272.21866112681414,272.73153218011225,272.5034465331403,272.5034777819476,273.82299203125376,273.82299203125376,274.6357473738233,275.7371710875216,space,1,1.9129417236781592,None,,,,,,,,,,,,,,,,,,,,,,,,,,,,,,,,,,,,,,,,,,,,,,,,,,,,,,,,,,,,,,006,001,2023-11-09_18h05.23.696,untitled,2023.2.2,59.96668444462856,2023-11-09 18h05.54.516793 +0800,
1,condition_1/rightstar.PNG,right,,,,,1,18,43,12,,,,,,,,,275.83782980637466,,,,,,,,,,,,,,,,,,,,,,,,,,,,,,,,,,,,,,,,,,,,,275.7381304860062,275.83782980637466,276.2522902521448,276.2523064774873,276.7522952098884,277.26216848095055,277.03638683259396,277.03641026919945,278.35638423653904,278.35638423653904,279.1689313538816,279.45374800901527,right,1,1.0921124704675549,None,,,,,,,,,,,,,,,,,,,,,,,,,,,,,,,,,,,,,,,,,,,,,,,,,,,,,,,,,,,,,,006,001,2023-11-09_18h05.23.696,untitled,2023.2.2,59.96668444462856,2023-11-09 18h05.54.516793 +0800,
8,condition_1/rightstar.PNG,space,,,,,1,19,44,6,,,,,,,,,279.5634051825548,,,,,,,,,,,,,,,,,,,,,,,,,,,,,,,,,,,,,,,,,,,,,279.4547251351887,279.5634051825548,279.9689768449341,279.9689921688687,280.468968281559,280.9792712237245,280.75337599797126,280.7534066458402,282.07369550500925,282.07369550500925,282.8853892895313,283.47037147320407,space,1,1.3912134362660709,None,,,,,,,,,,,,,,,,,,,,,,,,,,,,,,,,,,,,,,,,,,,,,,,,,,,,,,,,,,,,,,006,001,2023-11-09_18h05.23.696,untitled,2023.2.2,59.96668444462856,2023-11-09 18h05.54.516793 +0800,
2,condition_1/leftstar.PNG,left,,,,,1,20,45,17,,,,,,,,,283.5910883208485,,,,,,,,,,,,,,,,,,,,,,,,,,,,,,,,,,,,,,,,,,,,,283.4713525054783,283.5910883208485,283.98568774569003,283.98570577384817,284.48584924794045,284.9992893900985,284.76996881429113,284.7699973588749,286.0899620116661,286.0899620116661,,286.5706543049589,left,1,0.47034623378272045,None,,,,,,,,,,,,,,,,,,,,,,,,,,,,,,,,,,,,,,,,,,,,,,,,,,,,,,,,,,,,,,006,001,2023-11-09_18h05.23.696,untitled,2023.2.2,59.96668444462856,2023-11-09 18h05.54.516793 +0800,
1,condition_1/rightstar.PNG,right,,,,,1,21,46,4,,,,,,,,,286.68563549407827,,,,,,,,,,,,,,,,,,,,,,,,,,,,,,,,,,,,,,,,,,,,,286.5717525202615,286.68563549407827,287.08562804243957,287.0856436668432,287.58560655888436,288.0910409969331,287.869627871773,287.86965010650147,289.19034730345334,289.19034730345334,290.0024503271661,290.13726910060836,right,1,0.9299551970223092,None,,,,,,,,,,,,,,,,,,,,,,,,,,,,,,,,,,,,,,,,,,,,,,,,,,,,,,,,,,,,,,006,001,2023-11-09_18h05.23.696,untitled,2023.2.2,59.96668444462856,2023-11-09 18h05.54.516793 +0800,
1,condition_1/rightstar.PNG,right,,,,,1,22,47,21,,,,,,,,,290.2493309299796,,,,,,,,,,,,,,,,,,,,,,,,,,,,,,,,,,,,,,,,,,,,,290.13844363511384,290.2493309299796,290.6523155516602,290.6523317770025,291.152254406157,291.66200899184446,291.43681446050596,291.4368448079056,292.7567003903398,292.7567003903398,,293.3030656582516,right,1,0.5401710932305832,None,,,,,,,,,,,,,,,,,,,,,,,,,,,,,,,,,,,,,,,,,,,,,,,,,,,,,,,,,,,,,,006,001,2023-11-09_18h05.23.696,untitled,2023.2.2,59.96668444462856,2023-11-09 18h05.54.516793 +0800,
9,condition_1/leftstar.PNG,space,,,,,1,23,48,3,,,,,,,,,293.4097436786517,,,,,,,,,,,,,,,,,,,,,,,,,,,,,,,,,,,,,,,,,,,,,293.3036650945112,293.4097436786517,293.8190153200285,293.8190324467787,294.31871740471456,294.83184385692016,294.6034009519469,294.60343099887723,295.923169097814,295.923169097814,296.7355245157412,302.38678992718724,space,1,6.453624215662558,None,,,,,,,,,,,,,,,,,,,,,,,,,,,,,,,,,,,,,,,,,,,,,,,,,,,,,,,,,,,,,,006,001,2023-11-09_18h05.23.696,untitled,2023.2.2,59.96668444462856,2023-11-09 18h05.54.516793 +0800,
2,condition_1/rightstar.PNG,left,,,,,1,24,49,5,,,,,,,,,302.4902439119662,,,,,,,,,,,,,,,,,,,,,,,,,,,,,,,,,,,,,,,,,,,,,302.38759638679653,302.4902439119662,302.9022023498503,302.90221647190765,303.4022929413452,303.91122123644936,303.6863202636198,303.68634219787896,305.0060451419072,305.0060451419072,,305.50301776344486,right,0,0.49067328260002796,None,,,,,,,,,,,,,,,,,,,,,,,,,,,,,,,,,,,,,,,,,,,,,,,,,,,,,,,,,,,,,,006,001,2023-11-09_18h05.23.696,untitled,2023.2.2,59.96668444462856,2023-11-09 18h05.54.516793 +0800,
,,,,,,,,,,,,,,,,,,,,,,,,,,,,,,,,,,,,,,,,,,,,,,,,,,,,,,,,,,,,,,,,,,,,,,,,,,,,,,,,305.503396655236,305.5193653968133,305.5193653968133,315.35343843549254,space,9.817211903271755,None,,,,,,,,,,,,,,,,,,,,,,,,,,,,,,,,,,,,,,,,,,,,,,,,,,,,,,,006,001,2023-11-09_18h05.23.696,untitled,2023.2.2,59.96668444462856,2023-11-09 18h05.54.516793 +0800,
,,,,,,,,,,,,,,,,,,,,,,,,,,,,,,,,,,,,,,,,,,,,,,,,,,,,,,,,,,,,,,,,,,,,,,,,,,,,,,,,,,,,,,,315.35348560917305,315.3689099003734,315.3689099003734,332.169962864999,space,16.791842979549756,None,,,,,,,,,,,,,,,,,,,,,,,,,,,,,,,,,,,,,,,,,,,,,,,,006,001,2023-11-09_18h05.23.696,untitled,2023.2.2,59.96668444462856,2023-11-09 18h05.54.516793 +0800,
8,test2/leftstar.PNG,left,,,,,,,,,0,0,0,5,,,,,332.321584783273,,,,,,,,,,,,,,,,,,,,,,,,,,,,,,,,,,,,,,,,,,,,,,,,,,,,,,,,,,,,,,,,,,,,,,,,,,,332.1922576872819,332.321584783273,332.68578092122084,332.6858055597038,333.18574291185405,333.70218233859464,333.4697753421069,333.46980629044515,334.7810642442432,334.7810642442432,335.5855007936898,341.370350350212,space,6.586768173209748,None,,,,,,,,,,,,,,,,,,,,,,,,,,,,,,,,,006,001,2023-11-09_18h05.23.696,untitled,2023.2.2,59.96668444462856,2023-11-09 18h05.54.516793 +0800,
9,test2/rightstar.PNG,right,,,,,,,,,0,1,1,3,,,,,341.4799381153425,,,,,,,,,,,,,,,,,,,,,,,,,,,,,,,,,,,,,,,,,,,,,,,,,,,,,,,,,,,,,,,,,,,,,,,,,,,341.3714714011817,341.4799381153425,341.88569276352746,341.88571289497077,342.3857325757101,342.88547582469073,342.6697430717038,342.6697698134717,343.9906343718253,343.9906343718253,,344.48624496601246,right,0.48112406768109395,None,,,,,,,,,,,,,,,,,,,,,,,,,,,,,,,,,006,001,2023-11-09_18h05.23.696,untitled,2023.2.2,59.96668444462856,2023-11-09 18h05.54.516793 +0800,
8,test2/rightstar.PNG,right,,,,,,,,,0,2,2,1,,,,,344.58452336704704,,,,,,,,,,,,,,,,,,,,,,,,,,,,,,,,,,,,,,,,,,,,,,,,,,,,,,,,,,,,,,,,,,,,,,,,,,,344.4866647216288,344.58452336704704,345.0027231532931,345.00275049599986,345.4858937173972,346.0020356795278,345.77015901135997,345.77019116157544,347.08974687564523,347.08974687564523,,347.58717020113727,right,0.4863771725058541,None,,,,,,,,,,,,,,,,,,,,,,,,,,,,,,,,,006,001,2023-11-09_18h05.23.696,untitled,2023.2.2,59.96668444462856,2023-11-09 18h05.54.516793 +0800,
1,test2/blank.PNG,space,,,,,,,,,0,3,3,2,,,,,347.69167492706856,,,,,,,,,,,,,,,,,,,,,,,,,,,,,,,,,,,,,,,,,,,,,,,,,,,,,,,,,,,,,,,,,,,,,,,,,,,347.58801001283905,347.69167492706856,348.1025579853174,348.1025820228615,348.6024166145103,348.9865999704939,348.8864685752678,348.88649651891296,350.2025118031854,350.2025118031854,351.0022904774969,351.52010004425915,space,1.3018301284776044,None,,,,,,,,,,,,,,,,,,,,,,,,,,,,,,,,,006,001,2023-11-09_18h05.23.696,untitled,2023.2.2,59.96668444462856,2023-11-09 18h05.54.516793 +0800,
2,test2/leftstar.PNG,space,,,,,,,,,0,4,4,4,,,,,351.62525889186327,,,,,,,,,,,,,,,,,,,,,,,,,,,,,,,,,,,,,,,,,,,,,,,,,,,,,,,,,,,,,,,,,,,,,,,,,,,351.5208031424281,351.62525889186327,352.0357738752157,352.03579911463726,352.53564812881245,353.0397589995814,352.81946692539077,352.8194876577727,354.13962297712806,354.13962297712806,,354.7539294624273,left,0.6127031810985955,None,,,,,,,,,,,,,,,,,,,,,,,,,,,,,,,,,006,001,2023-11-09_18h05.23.696,untitled,2023.2.2,59.96668444462856,2023-11-09 18h05.54.516793 +0800,
1,test2/leftstar.PNG,space,,,,,,,,,0,5,5,0,,,,,354.8610665999224,,,,,,,,,,,,,,,,,,,,,,,,,,,,,,,,,,,,,,,,,,,,,,,,,,,,,,,,,,,,,,,,,,,,,,,,,,,354.75474703940085,354.8610665999224,355.2691093218498,355.2691231434378,355.7692074250772,356.278581616627,356.0532509726943,356.05327951727804,357.37357588817986,357.37357588817986,358.18577866770124,358.3373891681417,space,0.9544828066957507,None,,,,,,,,,,,,,,,,,,,,,,,,,,,,,,,,,006,001,2023-11-09_18h05.23.696,untitled,2023.2.2,59.96668444462856,2023-11-09 18h05.54.516793 +0800,
,,,,,,,,,,,,,,,,,,,,,,,,,,,,,,,,,,,,,,,,,,,,,,,,,,,,,,,,,,,,,,,,,,,,,,,,,,,,,,,,,,,,,,,,,,,,,,,,,,,,,,,,,,,,,358.33804449169156,358.3522218352846,358.3522218352846,359.352250079399,363.88697366416613,space,5.527792058416026,None,,,,,,,,,,,,,,,,,,,,,,,,,006,001,2023-11-09_18h05.23.696,untitled,2023.2.2,59.96668444462856,2023-11-09 18h05.54.516793 +0800,
,,,,,,,,,,,,,,,,,,,,,,,,,,,,,,,,,,,,,,,,,,,,,,,,,,,,,,,,,,,,,,,,,,,,,,,,,,,,,,,,,,,,,,,,,,,,,,,,,,,,,,,,,,,,,,,,,,,,,363.8870316547416,363.9020617302165,363.9020617302165,364.9023153263083,367.90341384208,space,3.9944665573159455,None,,,,,,,,,,,,,,,,,006,001,2023-11-09_18h05.23.696,untitled,2023.2.2,59.96668444462856,2023-11-09 18h05.54.516793 +0800,
1,condition_2/leftstar.PNG,space,,,,,,,,,,,,,0,0,0,0,368.0541373571382,,,,,,,,,,,,,,,,,,,,,,,,,,,,,,,,,,,,,,,,,,,,,,,,,,,,,,,,,,,,,,,,,,,,,,,,,,,,,,,,,,,,,,,,,,,,,,,,,,,,,,,,,,367.92481957569544,368.0541373571382,368.4190104524257,368.41903148527695,368.90261188951035,369.42443392334485,369.1864081508909,369.1864342917204,370.53120599063686,370.53120599063686,371.2696375468845,space,1,0.7327665080088082,None,,006,001,2023-11-09_18h05.23.696,untitled,2023.2.2,59.96668444462856,2023-11-09 18h05.54.516793 +0800,
8,condition_2/rightstar.PNG,right,,,,,,,,,,,,,0,1,1,14,371.36938854797313,,,,,,,,,,,,,,,,,,,,,,,,,,,,,,,,,,,,,,,,,,,,,,,,,,,,,,,,,,,,,,,,,,,,,,,,,,,,,,,,,,,,,,,,,,,,,,,,,,,,,,,,,,371.2703148046935,371.36938854797313,371.7855733870733,371.7855881100693,372.2691901480923,372.7838333693396,372.5534788786606,372.55351283169193,373.8736129961387,373.8736129961387,374.3696166041741,right,1,0.4872344114273801,None,,006,001,2023-11-09_18h05.23.696,untitled,2023.2.2,59.96668444462856,2023-11-09 18h05.54.516793 +0800,
8,condition_2/blank.PNG,space,,,,,,,,,,,,,0,2,2,24,374.4670227428221,,,,,,,,,,,,,,,,,,,,,,,,,,,,,,,,,,,,,,,,,,,,,,,,,,,,,,,,,,,,,,,,,,,,,,,,,,,,,,,,,,,,,,,,,,,,,,,,,,,,,,,,,,374.37025810613613,374.4670227428221,374.8855710734597,374.8855882002099,375.36914276408334,375.75290756632785,375.65340295006786,375.6534341988752,376.9690832110675,376.9690832110675,378.003659115172,space,1,1.0234465211215138,None,377.7691070683302,006,001,2023-11-09_18h05.23.696,untitled,2023.2.2,59.96668444462856,2023-11-09 18h05.54.516793 +0800,
8,condition_2/rightstar.PNG,right,,,,,,,,,,,,,0,3,3,23,378.1116766277248,,,,,,,,,,,,,,,,,,,,,,,,,,,,,,,,,,,,,,,,,,,,,,,,,,,,,,,,,,,,,,,,,,,,,,,,,,,,,,,,,,,,,,,,,,,,,,,,,,,,,,,,,,378.0046548704422,378.1116766277248,378.5189185989598,378.5189363266486,379.01920810113324,379.52754417124106,379.3035235734694,379.30355722603144,380.6238725264991,380.6238725264991,381.0541743148624,right,1,0.4241692098889871,None,,006,001,2023-11-09_18h05.23.696,untitled,2023.2.2,59.96668444462856,2023-11-09 18h05.54.516793 +0800,
8,condition_2/rightstar.PNG,right,,,,,,,,,,,,,0,4,4,6,381.1664047075128,,,,,,,,,,,,,,,,,,,,,,,,,,,,,,,,,,,,,,,,,,,,,,,,,,,,,,,,,,,,,,,,,,,,,,,,,,,,,,,,,,,,,,,,,,,,,,,,,,,,,,,,,,381.05548466149276,381.1664047075128,381.56880972390786,381.56883916989955,382.0691022307742,382.58551401433897,382.35356823823145,382.35360489548634,383.6724914644183,383.6724914644183,384.1695827713306,right,1,0.480198021289425,None,,006,001,2023-11-09_18h05.23.696,untitled,2023.2.2,59.96668444462856,2023-11-09 18h05.54.516793 +0800,
2,condition_2/rightstar.PNG,space,,,,,,,,,,,,,0,5,5,13,384.2656166666718,,,,,,,,,,,,,,,,,,,,,,,,,,,,,,,,,,,,,,,,,,,,,,,,,,,,,,,,,,,,,,,,,,,,,,,,,,,,,,,,,,,,,,,,,,,,,,,,,,,,,,,,,,384.17016478037044,384.2656166666718,384.6857493719442,384.6857689024489,385.1690413256465,385.6795146339068,385.4531212300492,385.45314887322525,386.77447855805985,386.77447855805985,388.7378687772432,space,1,1.945927544231381,None,387.58617715009086,006,001,2023-11-09_18h05.23.696,untitled,2023.2.2,59.96668444462856,2023-11-09 18h05.54.516793 +0800,
9,condition_2/leftstar.PNG,left,,,,,,,,,,,,,0,6,6,19,388.85779749390576,,,,,,,,,,,,,,,,,,,,,,,,,,,,,,,,,,,,,,,,,,,,,,,,,,,,,,,,,,,,,,,,,,,,,,,,,,,,,,,,,,,,,,,,,,,,,,,,,,,,,,,,,,388.7394249077636,388.85779749390576,389.2523407309877,389.2523593600845,389.75236612064396,390.26580175576237,390.0365214428416,390.0365484850788,391.35727092145225,391.35727092145225,391.92106190659206,left,1,0.5622585916944445,None,,006,001,2023-11-09_18h05.23.696,untitled,2023.2.2,59.96668444462856,2023-11-09 18h05.54.516793 +0800,
8,condition_2/leftstar.PNG,left,,,,,,,,,,,,,0,7,7,2,392.03051265772024,,,,,,,,,,,,,,,,,,,,,,,,,,,,,,,,,,,,,,,,,,,,,,,,,,,,,,,,,,,,,,,,,,,,,,,,,,,,,,,,,,,,,,,,,,,,,,,,,,,,,,,,,,391.9222652861506,392.03051265772024,392.43559876170593,392.43561288376327,392.9356959635254,393.44324600593677,393.2198894453247,393.21991768943917,394.5395446147338,394.5395446147338,395.0035927114561,left,1,0.45311852582563006,None,,006,001,2023-11-09_18h05.23.696,untitled,2023.2.2,59.96668444462856,2023-11-09 18h05.54.516793 +0800,
2,condition_2/rightstar.PNG,space,,,,,,,,,,,,,0,8,8,21,395.1081596345332,,,,,,,,,,,,,,,,,,,,,,,,,,,,,,,,,,,,,,,,,,,,,,,,,,,,,,,,,,,,,,,,,,,,,,,,,,,,,,,,,,,,,,,,,,,,,,,,,,,,,,,,,,395.00445115225466,395.1081596345332,395.5193653968133,395.519394842805,396.0192093030105,396.5297210713413,396.30341149841934,396.30344545145067,397.62406302403724,397.62406302403724,398.2197130698439,space,1,0.5846624843343307,None,,006,001,2023-11-09_18h05.23.696,untitled,2023.2.2,59.96668444462856,2023-11-09 18h05.54.516793 +0800,
9,condition_2/rightstar.PNG,right,,,,,,,,,,,,,0,9,9,15,398.32185790986955,,,,,,,,,,,,,,,,,,,,,,,,,,,,,,,,,,,,,,,,,,,,,,,,,,,,,,,,,,,,,,,,,,,,,,,,,,,,,,,,,,,,,,,,,,,,,,,,,,,,,,,,,,398.22022146390464,398.32185790986955,398.7355879147642,398.7356053419837,399.2357557268699,399.74179140399406,399.51980738715815,399.51983412892605,400.82324021889804,400.82324021889804,401.2536204297494,right,1,0.41709706390429346,None,,006,001,2023-11-09_18h05.23.696,untitled,2023.2.2,59.96668444462856,2023-11-09 18h05.54.516793 +0800,
9,condition_2/rightstar.PNG,right,,,,,,,,,,,,,0,10,10,7,401.3605947128822,,,,,,,,,,,,,,,,,,,,,,,,,,,,,,,,,,,,,,,,,,,,,,,,,,,,,,,,,,,,,,,,,,,,,,,,,,,,,,,,,,,,,,,,,,,,,,,,,,,,,,,,,,401.2546005606157,401.3605947128822,401.76900010125814,401.76902293692524,402.2691631058551,402.77698477251624,402.55354287862224,402.55357713212265,403.8735550055633,403.8735550055633,404.4364175405567,right,1,0.5503972654889822,None,,006,001,2023-11-09_18h05.23.696,untitled,2023.2.2,59.96668444462856,2023-11-09 18h05.54.516793 +0800,
2,condition_2/leftstar.PNG,space,,,,,,,,,,,,,0,11,11,17,404.535214251139,,,,,,,,,,,,,,,,,,,,,,,,,,,,,,,,,,,,,,,,,,,,,,,,,,,,,,,,,,,,,,,,,,,,,,,,,,,,,,,,,,,,,,,,,,,,,,,,,,,,,,,,,,404.4369743101752,404.535214251139,404.9522872774987,404.95230530565686,405.4523838783798,405.95190538101474,405.73621980170833,405.73623302235774,407.05642032290234,407.05642032290234,407.1870427420588,space,1,0.11971057594860213,None,,006,001,2023-11-09_18h05.23.696,untitled,2023.2.2,59.96668444462856,2023-11-09 18h05.54.516793 +0800,
9,condition_2/leftstar.PNG,left,,,,,,,,,,,,,0,12,12,3,407.2978564219454,,,,,,,,,,,,,,,,,,,,,,,,,,,,,,,,,,,,,,,,,,,,,,,,,,,,,,,,,,,,,,,,,,,,,,,,,,,,,,,,,,,,,,,,,,,,,,,,,,,,,,,,,,407.1879859152011,407.2978564219454,407.7023710333169,407.70238846053667,408.2023282164414,408.70865024081127,408.48656646816676,408.48659591415844,409.806516397962,409.806516397962,410.88712299740973,left,1,1.0735473736428958,None,410.6191467453016,006,001,2023-11-09_18h05.23.696,untitled,2023.2.2,59.96668444462856,2023-11-09 18h05.54.516793 +0800,
2,condition_2/blank.PNG,space,,,,,,,,,,,,,0,13,13,9,411.0009398679799,,,,,,,,,,,,,,,,,,,,,,,,,,,,,,,,,,,,,,,,,,,,,,,,,,,,,,,,,,,,,,,,,,,,,,,,,,,,,,,,,,,,,,,,,,,,,,,,,,,,,,,,,,410.88817554137813,411.0009398679799,411.4023295986001,411.4023425187802,411.90249921352165,412.2897873188133,412.1864688456901,412.18649618839663,413.5025108717307,413.5025108717307,413.5371075082171,space,1,0.01799420514907979,None,,006,001,2023-11-09_18h05.23.696,untitled,2023.2.2,59.96668444462856,2023-11-09 18h05.54.516793 +0800,
9,condition_2/leftstar.PNG,left,,,,,,,,,,,,,0,14,14,20,413.6442647771555,,,,,,,,,,,,,,,,,,,,,,,,,,,,,,,,,,,,,,,,,,,,,,,,,,,,,,,,,,,,,,,,,,,,,,,,,,,,,,,,,,,,,,,,,,,,,,,,,,,,,,,,,,413.538186193015,413.6442647771555,414.05235377135546,414.0523711985752,414.5525561374311,415.06152349354466,414.8369277975271,414.83696295243544,416.1562788920014,416.1562788920014,416.7860841848885,left,1,0.61989281058095,None,,006,001,2023-11-09_18h05.23.696,untitled,2023.2.2,59.96668444462856,2023-11-09 18h05.54.516793 +0800,
9,condition_2/blank.PNG,space,,,,,,,,,,,,,0,15,15,11,416.8857612705285,,,,,,,,,,,,,,,,,,,,,,,,,,,,,,,,,,,,,,,,,,,,,,,,,,,,,,,,,,,,,,,,,,,,,,,,,,,,,,,,,,,,,,,,,,,,,,,,,,,,,,,,,,416.786527978049,416.8857612705285,417.30297010901336,417.30300676626825,417.78570048558845,418.16721327040705,418.06989006128674,418.06991740399326,419.3859915802493,419.3859915802493,420.8875205182976,space,1,1.4938639661286288,None,420.1854487524065,006,001,2023-11-09_18h05.23.696,untitled,2023.2.2,59.96668444462856,2023-11-09 18h05.54.516793 +0800,
1,condition_2/rightstar.PNG,space,,,,,,,,,,,,,0,16,16,12,420.9984859351823,,,,,,,,,,,,,,,,,,,,,,,,,,,,,,,,,,,,,,,,,,,,,,,,,,,,,,,,,,,,,,,,,,,,,,,,,,,,,,,,,,,,,,,,,,,,,,,,,,,,,,,,,,420.88870797298296,420.9984859351823,421.4022905375907,421.4023097676261,421.90244212435414,422.4096601481856,422.1863065922664,422.1863294279335,423.5077907183231,423.5077907183231,425.75473051358927,space,1,2.2363915199150597,None,424.31936762028613,006,001,2023-11-09_18h05.23.696,untitled,2023.2.2,59.96668444462856,2023-11-09 18h05.54.516793 +0800,
1,condition_2/leftstar.PNG,space,,,,,,,,,,,,,0,17,17,16,425.8653446818587,,,,,,,,,,,,,,,,,,,,,,,,,,,,,,,,,,,,,,,,,,,,,,,,,,,,,,,,,,,,,,,,,,,,,,,,,,,,,,,,,,,,,,,,,,,,,,,,,,,,,,,,,,425.75624097277546,425.8653446818587,426.26903901203286,426.26905764112985,426.76902353786386,427.27637647241227,427.05322603374225,427.053254578326,428.3748027043439,428.3748027043439,428.7197739148778,space,1,0.3371935626253162,None,,006,001,2023-11-09_18h05.23.696,untitled,2023.2.2,59.96668444462856,2023-11-09 18h05.54.516793 +0800,
8,condition_2/blank.PNG,space,,,,,,,,,,,,,0,18,18,10,428.8163802042411,,,,,,,,,,,,,,,,,,,,,,,,,,,,,,,,,,,,,,,,,,,,,,,,,,,,,,,,,,,,,,,,,,,,,,,,,,,,,,,,,,,,,,,,,,,,,,,,,,,,,,,,,,428.72037966099265,428.8163802042411,429.2357157644526,429.23573349214143,429.7357303372137,430.09588095646586,430.01986222280584,430.01989196926684,431.3356891128253,431.3356891128253,433.3705955331634,space,1,2.0239942766609147,None,432.1355942847133,006,001,2023-11-09_18h05.23.696,untitled,2023.2.2,59.96668444462856,2023-11-09 18h05.54.516793 +0800,
8,condition_2/leftstar.PNG,left,,,,,,,,,,,,,0,19,19,18,433.48412245085615,,,,,,,,,,,,,,,,,,,,,,,,,,,,,,,,,,,,,,,,,,,,,,,,,,,,,,,,,,,,,,,,,,,,,,,,,,,,,,,,,,,,,,,,,,,,,,,,,,,,,,,,,,433.3717219925802,433.48412245085615,433.88578470713423,433.88580513904685,434.3858446507602,434.9033315134909,434.66984372892034,434.6698722735041,435.99365348738206,435.99365348738206,436.4536653799571,left,1,0.45483120085259543,None,,006,001,2023-11-09_18h05.23.696,untitled,2023.2.2,59.96668444462856,2023-11-09 18h05.54.516793 +0800,
1,condition_2/rightstar.PNG,space,,,,,,,,,,,,,0,20,20,4,436.5629018964721,,,,,,,,,,,,,,,,,,,,,,,,,,,,,,,,,,,,,,,,,,,,,,,,,,,,,,,,,,,,,,,,,,,,,,,,,,,,,,,,,,,,,,,,,,,,,,,,,,,,,,,,,,436.4545679897433,436.5629018964721,436.96908531435247,436.96910514532647,437.4691335396758,437.97940974007315,437.75322275862686,437.75325190414924,439.0723022288514,439.0723022288514,439.57010384519594,right,0,0.49590685691987346,None,,006,001,2023-11-09_18h05.23.696,untitled,2023.2.2,59.96668444462856,2023-11-09 18h05.54.516793 +0800,
1,condition_2/leftstar.PNG,space,,,,,,,,,,,,,0,21,21,22,439.67514731258757,,,,,,,,,,,,,,,,,,,,,,,,,,,,,,,,,,,,,,,,,,,,,,,,,,,,,,,,,,,,,,,,,,,,,,,,,,,,,,,,,,,,,,,,,,,,,,,,,,,,,,,,,,439.5708240701151,439.67514731258757,440.08574973250734,440.08577046488926,440.58599446475455,441.1020174410412,440.8705115519931,440.87056563646775,442.18961626163923,442.18961626163923,443.8032163436071,space,1,1.6102339243666393,None,443.00223939771536,006,001,2023-11-09_18h05.23.696,untitled,2023.2.2,59.96668444462856,2023-11-09 18h05.54.516793 +0800,
2,condition_2/rightstar.PNG,space,,,,,,,,,,,,,0,22,22,5,443.90064621932993,,,,,,,,,,,,,,,,,,,,,,,,,,,,,,,,,,,,,,,,,,,,,,,,,,,,,,,,,,,,,,,,,,,,,,,,,,,,,,,,,,,,,,,,,,,,,,,,,,,,,,,,,,443.80366854990825,443.90064621932993,444.31883368633476,444.31888055954596,444.8191995077111,445.33296385624703,445.1035732710923,445.103607825062,446.40724227170426,446.40724227170426,447.069964577674,space,1,0.6563412393818453,None,,006,001,2023-11-09_18h05.23.696,untitled,2023.2.2,59.96668444462856,2023-11-09 18h05.54.516793 +0800,
1,condition_2/blank.PNG,space,,,,,,,,,,,,,0,23,23,8,447.1772074803637,,,,,,,,,,,,,,,,,,,,,,,,,,,,,,,,,,,,,,,,,,,,,,,,,,,,,,,,,,,,,,,,,,,,,,,,,,,,,,,,,,,,,,,,,,,,,,,,,,,,,,,,,,447.0704188872601,447.1772074803637,447.5856768687013,447.5856945963901,448.0859176948477,448.4713549092328,448.3699915898642,448.37002343961035,449.66925330673985,449.66925330673985,451.53700594959264,space,1,1.8513566339265708,None,450.4689280186724,006,001,2023-11-09_18h05.23.696,untitled,2023.2.2,59.96668444462856,2023-11-09 18h05.54.516793 +0800,
2,condition_2/leftstar.PNG,space,,,,,,,,,,,,,0,24,24,1,451.64456704927443,,,,,,,,,,,,,,,,,,,,,,,,,,,,,,,,,,,,,,,,,,,,,,,,,,,,,,,,,,,,,,,,,,,,,,,,,,,,,,,,,,,,,,,,,,,,,,,,,,,,,,,,,,451.5379440147567,451.64456704927443,452.05234355539915,452.05236308590383,452.55262734865596,453.07294823785287,452.8368941449651,452.8369277975271,454.16302713207756,454.16302713207756,455.30362423068595,space,1,1.1245826856968506,None,454.96915382135353,006,001,2023-11-09_18h05.23.696,untitled,2023.2.2,59.96668444462856,2023-11-09 18h05.54.516793 +0800,
8,condition_2/leftstar.PNG,left,,,,,,,,,,,,,1,0,25,18,455.4061049953923,,,,,,,,,,,,,,,,,,,,,,,,,,,,,,,,,,,,,,,,,,,,,,,,,,,,,,,,,,,,,,,,,,,,,,,,,,,,,,,,,,,,,,,,,,,,,,,,,,,,,,,,,,455.3043564743773,455.4061049953923,455.8191117706747,455.8191388129119,456.31921618375736,456.827232554527,456.6035662100635,456.6035998626255,457.9238331349736,457.9238331349736,458.4543291166474,left,1,0.5240899761338369,None,,006,001,2023-11-09_18h05.23.696,untitled,2023.2.2,59.96668444462856,2023-11-09 18h05.54.516793 +0800,
2,condition_2/leftstar.PNG,space,,,,,,,,,,,,,1,1,26,1,458.56768957434633,,,,,,,,,,,,,,,,,,,,,,,,,,,,,,,,,,,,,,,,,,,,,,,,,,,,,,,,,,,,,,,,,,,,,,,,,,,,,,,,,,,,,,,,,,,,,,,,,,,,,,,,,,458.455620834181,458.56768957434633,458.96901800922865,458.96903844114127,459.46915877909714,459.96807754031033,459.75309956621254,459.75311338780057,461.074187974197,461.074187974197,461.45477651543956,space,1,0.3742285075059044,None,,006,001,2023-11-09_18h05.23.696,untitled,2023.2.2,59.96668444462856,2023-11-09 18h05.54.516793 +0800,
2,condition_2/blank.PNG,space,,,,,,,,,,,,,1,2,27,9,461.5664870961957,,,,,,,,,,,,,,,,,,,,,,,,,,,,,,,,,,,,,,,,,,,,,,,,,,,,,,,,,,,,,,,,,,,,,,,,,,,,,,,,,,,,,,,,,,,,,,,,,,,,,,,,,,461.45620013899725,461.5664870961957,461.96914510774377,461.9691691452881,462.46905601859544,462.8291501496187,462.75307342538326,462.75310046762047,464.06926568607514,464.06926568607514,465.1699974189687,space,1,1.0981975747920387,None,464.8689680411835,006,001,2023-11-09_18h05.23.696,untitled,2023.2.2,59.96668444462856,2023-11-09 18h05.54.516793 +0800,
9,condition_2/leftstar.PNG,left,,,,,,,,,,,,,1,3,28,3,465.2655565728112,,,,,,,,,,,,,,,,,,,,,,,,,,,,,,,,,,,,,,,,,,,,,,,,,,,,,,,,,,,,,,,,,,,,,,,,,,,,,,,,,,,,,,,,,,,,,,,,,,,,,,,,,,465.1704460196381,465.2655565728112,465.6857496724133,465.68576800104097,466.18584296813196,466.7049872195382,466.46996824339953,466.46999829032984,467.77397707479327,467.77397707479327,468.36986989979664,left,1,0.5933241129318958,None,,006,001,2023-11-09_18h05.23.696,untitled,2023.2.2,59.96668444462856,2023-11-09 18h05.54.516793 +0800,
2,condition_2/rightstar.PNG,space,,,,,,,,,,,,,1,4,29,13,468.4688162440916,,,,,,,,,,,,,,,,,,,,,,,,,,,,,,,,,,,,,,,,,,,,,,,,,,,,,,,,,,,,,,,,,,,,,,,,,,,,,,,,,,,,,,,,,,,,,,,,,,,,,,,,,,468.37042727035373,468.4688162440916,468.88577569305494,468.88579522355985,469.3854633552146,469.8953801943255,469.66981758809084,469.6698458322053,470.9743131797554,470.9743131797554,471.82072048332293,space,1,0.842821803374818,None,471.7858819690475,006,001,2023-11-09_18h05.23.696,untitled,2023.2.2,59.96668444462856,2023-11-09 18h05.54.516793 +0800,
1,condition_2/leftstar.PNG,space,,,,,,,,,,,,,1,5,30,16,471.93205157134935,,,,,,,,,,,,,,,,,,,,,,,,,,,,,,,,,,,,,,,,,,,,,,,,,,,,,,,,,,,,,,,,,,,,,,,,,,,,,,,,,,,,,,,,,,,,,,,,,,,,,,,,,,471.82182621035804,471.93205157134935,472.33568280297004,472.335698727843,472.8354981645832,473.3309708433603,473.11933348697335,473.11934700809206,474.4407545144761,474.4407545144761,476.11987403124954,space,1,1.6624449728030868,None,475.2521901958669,006,001,2023-11-09_18h05.23.696,untitled,2023.2.2,59.96668444462856,2023-11-09 18h05.54.516793 +0800,
2,condition_2/rightstar.PNG,space,,,,,,,,,,,,,1,6,31,5,476.2191992673356,,,,,,,,,,,,,,,,,,,,,,,,,,,,,,,,,,,,,,,,,,,,,,,,,,,,,,,,,,,,,,,,,,,,,,,,,,,,,,,,,,,,,,,,,,,,,,,,,,,,,,,,,,476.1203232328576,476.2191992673356,476.63570110155047,476.63572093252446,477.1191691302647,477.6180557412624,477.4028349879677,477.40285211471814,478.7241060812885,478.7241060812885,479.3043135072671,space,1,0.5717981915954624,None,,006,001,2023-11-09_18h05.23.696,untitled,2023.2.2,59.96668444462856,2023-11-09 18h05.54.516793 +0800,
1,condition_2/blank.PNG,space,,,,,,,,,,,,,1,7,32,8,479.41521612606743,,,,,,,,,,,,,,,,,,,,,,,,,,,,,,,,,,,,,,,,,,,,,,,,,,,,,,,,,,,,,,,,,,,,,,,,,,,,,,,,,,,,,,,,,,,,,,,,,,,,,,,,,,479.3055087741543,479.41521612606743,479.8190492730596,479.81906670027934,480.3191813293183,480.70699405401297,480.6032014403297,480.60322878303623,481.9193348090382,481.9193348090382,482.8042839110408,space,1,0.8806079215125919,None,482.7193048822958,006,001,2023-11-09_18h05.23.696,untitled,2023.2.2,59.96668444462856,2023-11-09 18h05.54.516793 +0800,
8,condition_2/rightstar.PNG,right,,,,,,,,,,,,,1,8,33,23,482.9170888009983,,,,,,,,,,,,,,,,,,,,,,,,,,,,,,,,,,,,,,,,,,,,,,,,,,,,,,,,,,,,,,,,,,,,,,,,,,,,,,,,,,,,,,,,,,,,,,,,,,,,,,,,,,482.80549780702495,482.9170888009983,483.3190902871195,483.3191080148083,483.81917396782046,484.32925546410956,484.1033692524354,484.1033989988964,485.42414427093695,485.42414427093695,486.0879539753141,right,1,0.655291399637008,None,,006,001,2023-11-09_18h05.23.696,untitled,2023.2.2,59.96668444462856,2023-11-09 18h05.54.516793 +0800,
9,condition_2/blank.PNG,space,,,,,,,,,,,,,1,9,34,11,486.20384768970666,,,,,,,,,,,,,,,,,,,,,,,,,,,,,,,,,,,,,,,,,,,,,,,,,,,,,,,,,,,,,,,,,,,,,,,,,,,,,,,,,,,,,,,,,,,,,,,,,,,,,,,,,,486.0894175612891,486.20384768970666,486.6023417976537,486.6023739478692,487.1020973658758,487.4729491993546,487.38662016203125,487.3866478052071,488.7024752961652,488.7024752961652,490.4371311551513,space,1,1.7288402756266805,None,489.50232458076266,006,001,2023-11-09_18h05.23.696,untitled,2023.2.2,59.96668444462856,2023-11-09 18h05.54.516793 +0800,
9,condition_2/leftstar.PNG,left,,,,,,,,,,,,,1,10,35,20,490.57019368551755,,,,,,,,,,,,,,,,,,,,,,,,,,,,,,,,,,,,,,,,,,,,,,,,,,,,,,,,,,,,,,,,,,,,,,,,,,,,,,,,,,,,,,,,,,,,,,,,,,,,,,,,,,490.43812540807494,490.57019368551755,490.9529927794222,490.95303123949293,491.4527537560916,491.9772929338335,491.73743940660916,491.7374832751275,493.06368807440344,493.06368807440344,494.02016118976235,left,1,0.9450612912307861,None,493.8689905763813,006,001,2023-11-09_18h05.23.696,untitled,2023.2.2,59.96668444462856,2023-11-09 18h05.54.516793 +0800,
9,condition_2/leftstar.PNG,left,,,,,,,,,,,,,1,11,36,19,494.1295611615783,,,,,,,,,,,,,,,,,,,,,,,,,,,,,,,,,,,,,,,,,,,,,,,,,,,,,,,,,,,,,,,,,,,,,,,,,,,,,,,,,,,,,,,,,,,,,,,,,,,,,,,,,,494.0209490202749,494.1295611615783,494.53572745270844,494.53574518039727,495.03577597850085,495.54670419728586,495.3198204275259,495.31984686882447,496.6398839347178,496.6398839347178,497.0871922856311,left,1,0.4402584396568727,None,,006,001,2023-11-09_18h05.23.696,untitled,2023.2.2,59.96668444462856,2023-11-09 18h05.54.516793 +0800,
9,condition_2/rightstar.PNG,right,,,,,,,,,,,,,1,12,37,15,497.1947581928214,,,,,,,,,,,,,,,,,,,,,,,,,,,,,,,,,,,,,,,,,,,,,,,,,,,,,,,,,,,,,,,,,,,,,,,,,,,,,,,,,,,,,,,,,,,,,,,,,,,,,,,,,,497.08818383433095,497.1947581928214,497.6021885583093,497.6022026803664,498.10279866122914,498.6122714067103,498.38683619946005,498.38686985202185,499.707097114984,499.707097114984,500.1363881246118,right,1,0.41365128193729106,None,,006,001,2023-11-09_18h05.23.696,untitled,2023.2.2,59.96668444462856,2023-11-09 18h05.54.516793 +0800,
8,condition_2/rightstar.PNG,right,,,,,,,,,,,,,1,13,38,6,500.2365513695843,,,,,,,,,,,,,,,,,,,,,,,,,,,,,,,,,,,,,,,,,,,,,,,,,,,,,,,,,,,,,,,,,,,,,,,,,,,,,,,,,,,,,,,,,,,,,,,,,,,,,,,,,,500.13694970173924,500.2365513695843,500.65232426526995,500.65233958920453,501.1359196929684,501.64688607135486,501.42027783194567,501.4203120854463,502.7557584190747,502.7557584190747,503.37007001235247,right,1,0.6123570404615748,None,,006,001,2023-11-09_18h05.23.696,untitled,2023.2.2,59.96668444462856,2023-11-09 18h05.54.516793 +0800,
9,condition_2/rightstar.PNG,right,,,,,,,,,,,,,1,14,39,7,503.46893252571203,,,,,,,,,,,,,,,,,,,,,,,,,,,,,,,,,,,,,,,,,,,,,,,,,,,,,,,,,,,,,,,,,,,,,,,,,,,,,,,,,,,,,,,,,,,,,,,,,,,,,,,,,,503.3705059933111,503.46893252571203,503.8857714864848,503.88579191839744,504.369474782663,504.88400592886046,504.65394079012026,504.65398405769974,505.9904513860199,505.9904513860199,506.43780991530684,right,1,0.44224514268830717,None,,006,001,2023-11-09_18h05.23.696,untitled,2023.2.2,59.96668444462856,2023-11-09 18h05.54.516793 +0800,
8,condition_2/blank.PNG,space,,,,,,,,,,,,,1,15,40,10,506.54825101325764,,,,,,,,,,,,,,,,,,,,,,,,,,,,,,,,,,,,,,,,,,,,,,,,,,,,,,,,,,,,,,,,,,,,,,,,,,,,,,,,,,,,,,,,,,,,,,,,,,,,,,,,,,506.4391271727311,506.54825101325764,506.9523365544644,506.95235488309186,507.4521347893276,507.8435014649381,507.73686460883255,507.73689796092526,509.0524015459748,509.0524015459748,510.4537323846116,space,1,1.3868728567149446,None,509.85227847374813,006,001,2023-11-09_18h05.23.696,untitled,2023.2.2,59.96668444462856,2023-11-09 18h05.54.516793 +0800,
2,condition_2/leftstar.PNG,space,,,,,,,,,,,,,1,16,41,17,510.5654880357631,,,,,,,,,,,,,,,,,,,,,,,,,,,,,,,,,,,,,,,,,,,,,,,,,,,,,,,,,,,,,,,,,,,,,,,,,,,,,,,,,,,,,,,,,,,,,,,,,,,,,,,,,,510.4547221304956,510.5654880357631,510.96905045991343,510.9690696899488,511.46934837522736,511.9795440498515,511.7535301387238,511.7535640917549,513.073262829213,513.073262829213,513.9198101514758,space,1,0.8382062944110658,None,513.8857071860539,006,001,2023-11-09_18h05.23.696,untitled,2023.2.2,59.96668444462856,2023-11-09 18h05.54.516793 +0800,
8,condition_2/leftstar.PNG,left,,,,,,,,,,,,,1,17,42,2,514.0194004014872,,,,,,,,,,,,,,,,,,,,,,,,,,,,,,,,,,,,,,,,,,,,,,,,,,,,,,,,,,,,,,,,,,,,,,,,,,,,,,,,,,,,,,,,,,,,,,,,,,,,,,,,,,513.9202575502679,514.0194004014872,514.4363379161914,514.4363754748542,514.919347428749,515.4280482685908,515.2035460185264,515.2035793706191,516.5398625112564,516.5398625112564,516.937203718488,left,1,0.3808833016287281,None,,006,001,2023-11-09_18h05.23.696,untitled,2023.2.2,59.96668444462856,2023-11-09 18h05.54.516793 +0800,
8,condition_2/blank.PNG,space,,,,,,,,,,,,,1,18,43,24,517.0437423211315,,,,,,,,,,,,,,,,,,,,,,,,,,,,,,,,,,,,,,,,,,,,,,,,,,,,,,,,,,,,,,,,,,,,,,,,,,,,,,,,,,,,,,,,,,,,,,,,,,,,,,,,,,516.9382015770432,517.0437423211315,517.4523655497521,517.4523835779105,517.9524206858694,518.31396007424,518.2365645902335,518.2365931348174,519.5525324003561,519.5525324003561,520.2706858842828,space,1,0.7028860377022284,None,,006,001,2023-11-09_18h05.23.696,untitled,2023.2.2,59.96668444462856,2023-11-09 18h05.54.516793 +0800,
1,condition_2/rightstar.PNG,space,,,,,,,,,,,,,1,19,44,12,520.380003827979,,,,,,,,,,,,,,,,,,,,,,,,,,,,,,,,,,,,,,,,,,,,,,,,,,,,,,,,,,,,,,,,,,,,,,,,,,,,,,,,,,,,,,,,,,,,,,,,,,,,,,,,,,520.2717351230888,520.380003827979,520.7857825137082,520.7858029456208,521.285755922175,521.7932251383436,521.5698331223539,521.5698604650604,522.8905603662361,522.8905603662361,523.4864700175203,space,1,0.5897948004990212,None,,006,001,2023-11-09_18h05.23.696,untitled,2023.2.2,59.96668444462856,2023-11-09 18h05.54.516793 +0800,
8,condition_2/rightstar.PNG,right,,,,,,,,,,,,,1,20,45,14,523.5878465575383,,,,,,,,,,,,,,,,,,,,,,,,,,,,,,,,,,,,,,,,,,,,,,,,,,,,,,,,,,,,,,,,,,,,,,,,,,,,,,,,,,,,,,,,,,,,,,,,,,,,,,,,,,523.4870249843232,523.5878465575383,524.00241847742,524.0024332004159,524.485845942778,524.9966010912444,524.7701286639603,524.7701605137065,526.0922008084428,526.0922008084428,526.4864471818535,right,1,0.3883755036990806,None,,006,001,2023-11-09_18h05.23.696,untitled,2023.2.2,59.96668444462856,2023-11-09 18h05.54.516793 +0800,
1,condition_2/leftstar.PNG,space,,,,,,,,,,,,,1,21,46,22,526.5852084370579,,,,,,,,,,,,,,,,,,,,,,,,,,,,,,,,,,,,,,,,,,,,,,,,,,,,,,,,,,,,,,,,,,,,,,,,,,,,,,,,,,,,,,,,,,,,,,,,,,,,,,,,,,526.4870045524106,526.5852084370579,527.0023577826207,527.0023731065553,527.5023663459958,528.0110296271748,527.7864213114465,527.7864564663548,529.0904226311077,529.0904226311077,529.6528621053224,space,1,0.54951118151439,None,,006,001,2023-11-09_18h05.23.696,untitled,2023.2.2,59.96668444462856,2023-11-09 18h05.54.516793 +0800,
1,condition_2/leftstar.PNG,space,,,,,,,,,,,,,1,22,47,0,529.7521491818072,,,,,,,,,,,,,,,,,,,,,,,,,,,,,,,,,,,,,,,,,,,,,,,,,,,,,,,,,,,,,,,,,,,,,,,,,,,,,,,,,,,,,,,,,,,,,,,,,,,,,,,,,,529.6533107059918,529.7521491818072,530.1691128373407,530.169132968784,530.6525339928435,531.1644035819547,530.9365550052628,530.9365826484386,532.2569273948982,532.2569273948982,532.9532271454786,space,1,0.6955146242917181,None,,006,001,2023-11-09_18h05.23.696,untitled,2023.2.2,59.96668444462856,2023-11-09 18h05.54.516793 +0800,
2,condition_2/rightstar.PNG,space,,,,,,,,,,,,,1,23,48,21,533.0567745762107,,,,,,,,,,,,,,,,,,,,,,,,,,,,,,,,,,,,,,,,,,,,,,,,,,,,,,,,,,,,,,,,,,,,,,,,,,,,,,,,,,,,,,,,,,,,,,,,,,,,,,,,,,532.9537625817766,533.0567745762107,533.4691518683032,533.4691710983386,533.9692589856097,534.4761807467085,534.2534948335806,534.2535263828574,535.5717993934727,535.5717993934727,535.9365180475386,space,1,0.3572243487101332,None,,006,001,2023-11-09_18h05.23.696,untitled,2023.2.2,59.96668444462856,2023-11-09 18h05.54.516793 +0800,
1,condition_2/rightstar.PNG,space,,,,,,,,,,,,,1,24,49,4,536.0412949986585,,,,,,,,,,,,,,,,,,,,,,,,,,,,,,,,,,,,,,,,,,,,,,,,,,,,,,,,,,,,,,,,,,,,,,,,,,,,,,,,,,,,,,,,,,,,,,,,,,,,,,,,,,535.937070911056,536.0412949986585,536.4524728172935,536.4524917468596,536.9524414182513,537.4590278556077,537.2365366465883,537.2365633883564,538.5406214967159,538.5406214967159,539.0877283228676,space,1,0.5386888781588368,None,,006,001,2023-11-09_18h05.23.696,untitled,2023.2.2,59.96668444462856,2023-11-09 18h05.54.516793 +0800,
