stimuli,star,CorrectAns,trials_3.thisRepN,trials_3.thisTrialN,trials_3.thisN,trials_3.thisIndex,trials.thisRepN,trials.thisTrialN,trials.thisN,trials.thisIndex,trials_4.thisRepN,trials_4.thisTrialN,trials_4.thisN,trials_4.thisIndex,trials_2.thisRepN,trials_2.thisTrialN,trials_2.thisN,trials_2.thisIndex,thisRow.t,notes,routine_21.started,text_9.started,key_resp_8.started,routine_21.stopped,key_resp_8.keys,key_resp_8.rt,key_resp_8.duration,introduction.started,text_6.started,key_resp_5.started,introduction.stopped,key_resp_5.keys,key_resp_5.rt,key_resp_5.duration,routine_14.started,image_6.started,routine_14.stopped,routine_16.started,text_4.started,text_4.stopped,routine_16.stopped,routine_17.started,image_7.started,key_resp_3.started,image_7.stopped,routine_17.stopped,key_resp_3.keys,key_resp_3.rt,key_resp_3.duration,routine_20.started,text_8.started,key_resp_7.started,routine_20.stopped,key_resp_7.keys,key_resp_7.rt,key_resp_7.duration,routine_18.started,text_5.started,key_resp_4.started,routine_18.stopped,key_resp_4.keys,key_resp_4.rt,key_resp_4.duration,trial.started,image_3.started,trial.stopped,routine.started,text_3.started,text_3.stopped,routine.stopped,routine_1.started,image_2.started,key_resp.started,routine_1.stopped,key_resp.keys,key_resp.corr,key_resp.rt,key_resp.duration,image_2.stopped,routine_22.started,text_10.started,key_resp_9.started,routine_22.stopped,key_resp_9.keys,key_resp_9.rt,key_resp_9.duration,routine_19.started,text_7.started,key_resp_6.started,routine_19.stopped,key_resp_6.keys,key_resp_6.rt,key_resp_6.duration,routine_23.started,image_8.started,routine_23.stopped,routine_24.started,text_11.started,text_11.stopped,routine_24.stopped,routine_25.started,image_9.started,key_resp_10.started,image_9.stopped,routine_25.stopped,key_resp_10.keys,key_resp_10.rt,key_resp_10.duration,routine_26.started,text_12.started,key_resp_11.started,text_12.stopped,routine_26.stopped,key_resp_11.keys,key_resp_11.rt,key_resp_11.duration,routine_27.started,text_13.started,key_resp_12.started,text_13.stopped,routine_27.stopped,key_resp_12.keys,key_resp_12.rt,key_resp_12.duration,routine_10.started,image_4.started,routine_10.stopped,routine_11.started,text.started,text.stopped,routine_11.stopped,routine_12.started,image_5.started,key_resp_2.started,image_5.stopped,routine_12.stopped,key_resp_2.keys,key_resp_2.corr,key_resp_2.rt,key_resp_2.duration,participant,session,date,expName,psychopyVersion,frameRate,expStart,
,,,,,,,,,,,,,,,,,,,,,0.0033422999999856984,0.007220499999903041,0.007220499999903041,14.919719100000066,space,14.90687109999999,None,,,,,,,,,,,,,,,,,,,,,,,,,,,,,,,,,,,,,,,,,,,,,,,,,,,,,,,,,,,,,,,,,,,,,,,,,,,,,,,,,,,,,,,,,,,,,,,,,,,,,,,,,,,,,,,,,,006,001,2023-11-11_13h52.17.523,untitled,2023.2.2,59.89498014188146,2023-11-11 13h52.27.623043 +0800,
,,,,,,,,,,,,,,,,,,,,,,,,,,,,14.919773600000099,14.93432759999996,14.93432759999996,88.66973159999998,space,73.72471010000004,None,,,,,,,,,,,,,,,,,,,,,,,,,,,,,,,,,,,,,,,,,,,,,,,,,,,,,,,,,,,,,,,,,,,,,,,,,,,,,,,,,,,,,,,,,,,,,,,,,,,,,,,,,,,006,001,2023-11-11_13h52.17.523,untitled,2023.2.2,59.89498014188146,2023-11-11 13h52.27.623043 +0800,
2,test/leftstar.PNG,left,0,0,0,4,,,,,,,,,,,,,88.83706699999993,,,,,,,,,,,,,,,,88.68023080000012,88.83706699999993,89.18514729999993,89.18519259999994,89.6845659999999,90.23390799999993,89.96889740000006,89.96893320000004,91.29534760000001,91.29534760000001,92.10121350000009,92.4363065,left,1.1355428000001666,None,,,,,,,,,,,,,,,,,,,,,,,,,,,,,,,,,,,,,,,,,,,,,,,,,,,,,,,,,,,,,,,,,,,,,,,,,,,,,,,,,,,,,,,,,,,,006,001,2023-11-11_13h52.17.523,untitled,2023.2.2,59.89498014188146,2023-11-11 13h52.27.623043 +0800,
1,test/leftstar.PNG,left,0,1,1,0,,,,,,,,,,,,,92.4969579000001,,,,,,,,,,,,,,,,92.43775860000005,92.4969579000001,92.95199690000004,92.95202029999996,93.45111500000007,93.88582339999994,93.73550610000007,93.7355427,95.0533109999999,95.0533109999999,,95.7203078,left,0.6509725000000799,None,,,,,,,,,,,,,,,,,,,,,,,,,,,,,,,,,,,,,,,,,,,,,,,,,,,,,,,,,,,,,,,,,,,,,,,,,,,,,,,,,,,,,,,,,,,,006,001,2023-11-11_13h52.17.523,untitled,2023.2.2,59.89498014188146,2023-11-11 13h52.27.623043 +0800,
8,test/rightstar.PNG,space,0,2,2,1,,,,,,,,,,,,,95.77818449999995,,,,,,,,,,,,,,,,95.72130949999996,95.77818449999995,96.23507519999998,96.23512180000012,96.7343929000001,97.14353080000001,97.01889800000004,97.01893020000011,98.336499,98.336499,,98.8703011,right,0.5242788999998993,None,,,,,,,,,,,,,,,,,,,,,,,,,,,,,,,,,,,,,,,,,,,,,,,,,,,,,,,,,,,,,,,,,,,,,,,,,,,,,,,,,,,,,,,,,,,,006,001,2023-11-11_13h52.17.523,untitled,2023.2.2,59.89498014188146,2023-11-11 13h52.27.623043 +0800,
1,test/blank.PNG,space,0,3,3,2,,,,,,,,,,,,,98.92792250000002,,,,,,,,,,,,,,,,98.87125179999998,98.92792250000002,99.38533419999999,99.38537470000006,99.8847353000001,100.32290059999991,100.16916199999991,100.16919529999996,101.48570949999998,101.48570949999998,102.28441249999992,105.51947939999991,space,4.030704100000094,None,,,,,,,,,,,,,,,,,,,,,,,,,,,,,,,,,,,,,,,,,,,,,,,,,,,,,,,,,,,,,,,,,,,,,,,,,,,,,,,,,,,,,,,,,,,,006,001,2023-11-11_13h52.17.523,untitled,2023.2.2,59.89498014188146,2023-11-11 13h52.27.623043 +0800,
9,test/rightstar.PNG,space,0,4,4,3,,,,,,,,,,,,,105.57404599999995,,,,,,,,,,,,,,,,105.52045180000005,105.57404599999995,106.03528310000002,106.03530640000008,106.53464310000004,106.98694649999993,106.81862939999996,106.81865360000006,108.1365151,108.1365151,,108.82001609999998,right,0.6804204999998547,None,,,,,,,,,,,,,,,,,,,,,,,,,,,,,,,,,,,,,,,,,,,,,,,,,,,,,,,,,,,,,,,,,,,,,,,,,,,,,,,,,,,,,,,,,,,,006,001,2023-11-11_13h52.17.523,untitled,2023.2.2,59.89498014188146,2023-11-11 13h52.27.623043 +0800,
8,test/rightstar.PNG,space,0,5,5,5,,,,,,,,,,,,,108.87369390000003,,,,,,,,,,,,,,,,108.82096430000001,108.87369390000003,109.33515310000007,109.33517669999992,109.83435159999999,110.29095869999992,110.11884409999993,110.11887550000006,111.43626250000011,111.43626250000011,,111.76976020000006,right,0.32650489999991805,None,,,,,,,,,,,,,,,,,,,,,,,,,,,,,,,,,,,,,,,,,,,,,,,,,,,,,,,,,,,,,,,,,,,,,,,,,,,,,,,,,,,,,,,,,,,,006,001,2023-11-11_13h52.17.523,untitled,2023.2.2,59.89498014188146,2023-11-11 13h52.27.623043 +0800,
,,,,,,,,,,,,,,,,,,,,,,,,,,,,,,,,,,,,,,,,,,,,,,,,,,111.7703368,111.78442070000006,111.78442070000006,143.785754,space,31.987898600000108,None,,,,,,,,,,,,,,,,,,,,,,,,,,,,,,,,,,,,,,,,,,,,,,,,,,,,,,,,,,,,,,,,,,,,,,,,,,,,,,,,,,,,,006,001,2023-11-11_13h52.17.523,untitled,2023.2.2,59.89498014188146,2023-11-11 13h52.27.623043 +0800,
,,,,,,,,,,,,,,,,,,,,,,,,,,,,,,,,,,,,,,,,,,,,,,,,,,,,,,,,,143.78580779999993,143.8010392000001,143.8010392000001,144.9695987,space,1.1661911000001055,None,,,,,,,,,,,,,,,,,,,,,,,,,,,,,,,,,,,,,,,,,,,,,,,,,,,,,,,,,,,,,,,,,,,,,,,,,,,,,,006,001,2023-11-11_13h52.17.523,untitled,2023.2.2,59.89498014188146,2023-11-11 13h52.27.623043 +0800,
2,condition_1/leftstar.PNG,left,,,,,0,0,0,1,,,,,,,,,145.11630480000008,,,,,,,,,,,,,,,,,,,,,,,,,,,,,,,,,,,,,,,,,,,,,144.98841029999994,145.11630480000008,145.4850879999999,145.48511439999993,145.9845739,146.51601619999997,146.2689018000001,146.26892799999996,147.59819650000009,147.59819650000009,148.02102579999996,left,1,0.4093030000001363,None,,,,,,,,,,,,,,,,,,,,,,,,,,,,,,,,,,,,,,,,,,,,,,,,,,,,,,,,,,,,,,,006,001,2023-11-11_13h52.17.523,untitled,2023.2.2,59.89498014188146,2023-11-11 13h52.27.623043 +0800,
8,condition_1/leftstar.PNG,space,,,,,0,1,1,2,,,,,,,,,148.07698030000006,,,,,,,,,,,,,,,,,,,,,,,,,,,,,,,,,,,,,,,,,,,,,148.02256880000004,148.07698030000006,148.53521150000006,148.5352444,149.03439350000008,149.45202590000008,149.31881569999996,149.31884749999995,150.63676480000004,150.63676480000004,151.03660020000007,left,0,0.3943460000000414,None,,,,,,,,,,,,,,,,,,,,,,,,,,,,,,,,,,,,,,,,,,,,,,,,,,,,,,,,,,,,,,,006,001,2023-11-11_13h52.17.523,untitled,2023.2.2,59.89498014188146,2023-11-11 13h52.27.623043 +0800,
9,condition_1/leftstar.PNG,space,,,,,0,2,2,19,,,,,,,,,151.09310619999997,,,,,,,,,,,,,,,,,,,,,,,,,,,,,,,,,,,,,,,,,,,,,151.03764389999992,151.09310619999997,151.5519601000001,151.55198599999994,152.0511065999999,152.4691754999999,152.33563159999994,152.3356566,153.6534319,153.6534319,154.16955639999992,left,0,0.5010506999999507,None,,,,,,,,,,,,,,,,,,,,,,,,,,,,,,,,,,,,,,,,,,,,,,,,,,,,,,,,,,,,,,,006,001,2023-11-11_13h52.17.523,untitled,2023.2.2,59.89498014188146,2023-11-11 13h52.27.623043 +0800,
1,condition_1/rightstar.PNG,right,,,,,0,3,3,4,,,,,,,,,154.22484050000003,,,,,,,,,,,,,,,,,,,,,,,,,,,,,,,,,,,,,,,,,,,,,154.170564,154.22484050000003,154.68515090000005,154.68519229999993,155.1848109,155.58925109999996,155.46896289999995,155.46899469999994,156.78669779999996,156.78669779999996,157.28703919999998,right,1,0.4836801999999807,None,,,,,,,,,,,,,,,,,,,,,,,,,,,,,,,,,,,,,,,,,,,,,,,,,,,,,,,,,,,,,,,006,001,2023-11-11_13h52.17.523,untitled,2023.2.2,59.89498014188146,2023-11-11 13h52.27.623043 +0800,
9,condition_1/blank.PNG,space,,,,,0,4,4,11,,,,,,,,,157.34659409999995,,,,,,,,,,,,,,,,,,,,,,,,,,,,,,,,,,,,,,,,,,,,,157.28808690000005,157.34659409999995,157.8019994000001,157.8020242,158.3011403999999,158.6958287,158.58535830000005,158.58538449999992,159.9021941000001,159.9021941000001,162.0691597,space,1,2.1541677000000163,None,160.70105009999997,,,,,,,,,,,,,,,,,,,,,,,,,,,,,,,,,,,,,,,,,,,,,,,,,,,,,,,,,,,,,,006,001,2023-11-11_13h52.17.523,untitled,2023.2.2,59.89498014188146,2023-11-11 13h52.27.623043 +0800,
2,condition_1/blank.PNG,space,,,,,0,5,5,9,,,,,,,,,162.12884570000006,,,,,,,,,,,,,,,,,,,,,,,,,,,,,,,,,,,,,,,,,,,,,162.0702593000001,162.12884570000006,162.58512739999992,162.58514850000006,163.08447479999995,163.4101129999999,163.3688279999999,163.3688598000001,164.6865691999999,164.6865691999999,165.370142,space,1,0.672868100000187,None,,,,,,,,,,,,,,,,,,,,,,,,,,,,,,,,,,,,,,,,,,,,,,,,,,,,,,,,,,,,,,,006,001,2023-11-11_13h52.17.523,untitled,2023.2.2,59.89498014188146,2023-11-11 13h52.27.623043 +0800,
8,condition_1/rightstar.PNG,space,,,,,0,6,6,6,,,,,,,,,165.4303460000001,,,,,,,,,,,,,,,,,,,,,,,,,,,,,,,,,,,,,,,,,,,,,165.3712038000001,165.4303460000001,165.88524110000003,165.88526810000008,166.3846016,166.9372796,166.6691326,166.66916429999992,167.98681669999996,167.98681669999996,168.5863085000001,right,0,0.5859525999999278,None,,,,,,,,,,,,,,,,,,,,,,,,,,,,,,,,,,,,,,,,,,,,,,,,,,,,,,,,,,,,,,,006,001,2023-11-11_13h52.17.523,untitled,2023.2.2,59.89498014188146,2023-11-11 13h52.27.623043 +0800,
9,condition_1/leftstar.PNG,space,,,,,0,7,7,3,,,,,,,,,168.64739090000012,,,,,,,,,,,,,,,,,,,,,,,,,,,,,,,,,,,,,,,,,,,,,168.58714409999993,168.64739090000012,169.1017498000001,169.10177479999993,169.6011301000001,170.0933748,169.88550970000006,169.88553619999993,171.20317279999995,171.20317279999995,171.73620260000007,left,0,0.5285164000001714,None,,,,,,,,,,,,,,,,,,,,,,,,,,,,,,,,,,,,,,,,,,,,,,,,,,,,,,,,,,,,,,,006,001,2023-11-11_13h52.17.523,untitled,2023.2.2,59.89498014188146,2023-11-11 13h52.27.623043 +0800,
1,condition_1/blank.PNG,space,,,,,0,8,8,8,,,,,,,,,171.78921979999996,,,,,,,,,,,,,,,,,,,,,,,,,,,,,,,,,,,,,,,,,,,,,171.73708579999993,171.78921979999996,172.2519582,172.25198309999996,172.7513100000001,173.1349631999999,173.03524560000005,173.03527050000002,174.3522117,174.3522117,183.7529603999999,space,1,9.394183200000043,None,175.15109310000003,,,,,,,,,,,,,,,,,,,,,,,,,,,,,,,,,,,,,,,,,,,,,,,,,,,,,,,,,,,,,,006,001,2023-11-11_13h52.17.523,untitled,2023.2.2,59.89498014188146,2023-11-11 13h52.27.623043 +0800,
1,condition_1/leftstar.PNG,left,,,,,0,9,9,0,,,,,,,,,183.8655665000001,,,,,,,,,,,,,,,,,,,,,,,,,,,,,,,,,,,,,,,,,,,,,183.7540977000001,183.8655665000001,184.26852929999995,184.26856900000007,184.76798099999996,185.3216526000001,185.05318809999994,185.0532207000001,186.3699962999999,186.3699962999999,186.9028462000001,left,1,0.5311519999997927,None,,,,,,,,,,,,,,,,,,,,,,,,,,,,,,,,,,,,,,,,,,,,,,,,,,,,,,,,,,,,,,,006,001,2023-11-11_13h52.17.523,untitled,2023.2.2,59.89498014188146,2023-11-11 13h52.27.623043 +0800,
1,condition_1/rightstar.PNG,right,,,,,0,10,10,21,,,,,,,,,186.9549108000001,,,,,,,,,,,,,,,,,,,,,,,,,,,,,,,,,,,,,,,,,,,,,186.90352269999994,186.9549108000001,187.41860569999994,187.418631,187.91786219999995,188.31985609999992,188.20231809999996,188.20234879999998,189.52023340000005,189.52023340000005,189.9528325000001,right,1,0.4264967000001434,None,,,,,,,,,,,,,,,,,,,,,,,,,,,,,,,,,,,,,,,,,,,,,,,,,,,,,,,,,,,,,,,006,001,2023-11-11_13h52.17.523,untitled,2023.2.2,59.89498014188146,2023-11-11 13h52.27.623043 +0800,
9,condition_1/leftstar.PNG,space,,,,,0,11,11,24,,,,,,,,,190.00385529999994,,,,,,,,,,,,,,,,,,,,,,,,,,,,,,,,,,,,,,,,,,,,,189.95331770000007,190.00385529999994,190.46846800000003,190.4685053999999,190.96778960000006,191.39412599999991,191.25192650000008,191.25195039999994,192.57004189999998,192.57004189999998,193.1866685,left,0,0.6136890999998741,None,,,,,,,,,,,,,,,,,,,,,,,,,,,,,,,,,,,,,,,,,,,,,,,,,,,,,,,,,,,,,,,006,001,2023-11-11_13h52.17.523,untitled,2023.2.2,59.89498014188146,2023-11-11 13h52.27.623043 +0800,
9,condition_1/rightstar.PNG,space,,,,,0,12,12,7,,,,,,,,,193.2401847000001,,,,,,,,,,,,,,,,,,,,,,,,,,,,,,,,,,,,,,,,,,,,,193.18778810000003,193.2401847000001,193.7018986999999,193.70192169999996,194.20106699999997,194.6071758999999,194.4854067000001,194.48543270000005,195.8031352999999,195.8031352999999,196.11998169999993,right,0,0.30258420000018305,None,,,,,,,,,,,,,,,,,,,,,,,,,,,,,,,,,,,,,,,,,,,,,,,,,,,,,,,,,,,,,,,006,001,2023-11-11_13h52.17.523,untitled,2023.2.2,59.89498014188146,2023-11-11 13h52.27.623043 +0800,
8,condition_1/leftstar.PNG,space,,,,,0,13,13,18,,,,,,,,,196.1942856999999,,,,,,,,,,,,,,,,,,,,,,,,,,,,,,,,,,,,,,,,,,,,,196.12099839999996,196.1942856999999,196.63513639999996,196.63517690000003,197.13472909999996,197.5777748999999,197.41916489999994,197.41919789999997,198.73657950000006,198.73657950000006,199.0701959999999,left,0,0.33178960000009283,None,,,,,,,,,,,,,,,,,,,,,,,,,,,,,,,,,,,,,,,,,,,,,,,,,,,,,,,,,,,,,,,006,001,2023-11-11_13h52.17.523,untitled,2023.2.2,59.89498014188146,2023-11-11 13h52.27.623043 +0800,
9,condition_1/rightstar.PNG,space,,,,,0,14,14,15,,,,,,,,,199.1238429,,,,,,,,,,,,,,,,,,,,,,,,,,,,,,,,,,,,,,,,,,,,,199.07186619999993,199.1238429,199.5849937999999,199.58501849999993,200.08439679999992,200.49349189999998,200.36865310000007,200.36867989999996,201.6867110999999,201.6867110999999,202.0037746999999,right,0,0.30945390000010775,None,,,,,,,,,,,,,,,,,,,,,,,,,,,,,,,,,,,,,,,,,,,,,,,,,,,,,,,,,,,,,,,006,001,2023-11-11_13h52.17.523,untitled,2023.2.2,59.89498014188146,2023-11-11 13h52.27.623043 +0800,
2,condition_1/blank.PNG,space,,,,,0,15,15,20,,,,,,,,,202.06954470000005,,,,,,,,,,,,,,,,,,,,,,,,,,,,,,,,,,,,,,,,,,,,,202.0048652999999,202.06954470000005,202.51864969999997,202.51867310000011,203.01772630000005,203.43810770000005,203.3020735,203.3020994000001,204.61909349999996,204.61909349999996,206.9866892,space,1,2.350268099999994,None,205.4178139999999,,,,,,,,,,,,,,,,,,,,,,,,,,,,,,,,,,,,,,,,,,,,,,,,,,,,,,,,,,,,,,006,001,2023-11-11_13h52.17.523,untitled,2023.2.2,59.89498014188146,2023-11-11 13h52.27.623043 +0800,
8,condition_1/rightstar.PNG,space,,,,,0,16,16,23,,,,,,,,,207.04211770000006,,,,,,,,,,,,,,,,,,,,,,,,,,,,,,,,,,,,,,,,,,,,,206.98777130000008,207.04211770000006,207.5019838999999,207.50201489999995,208.0013864,208.5422911999999,208.28612240000007,208.28619189999995,209.60315149999997,209.60315149999997,210.23696210000003,right,0,0.6223613000001933,None,,,,,,,,,,,,,,,,,,,,,,,,,,,,,,,,,,,,,,,,,,,,,,,,,,,,,,,,,,,,,,,006,001,2023-11-11_13h52.17.523,untitled,2023.2.2,59.89498014188146,2023-11-11 13h52.27.623043 +0800,
2,condition_1/leftstar.PNG,left,,,,,0,17,17,17,,,,,,,,,210.29576900000006,,,,,,,,,,,,,,,,,,,,,,,,,,,,,,,,,,,,,,,,,,,,,210.23821930000008,210.29576900000006,210.75172810000004,210.75176710000005,211.25097269999992,211.66385590000004,211.53594049999992,211.5359744,212.85306949999995,212.85306949999995,213.2869465000001,left,1,0.41731370000002244,None,,,,,,,,,,,,,,,,,,,,,,,,,,,,,,,,,,,,,,,,,,,,,,,,,,,,,,,,,,,,,,,006,001,2023-11-11_13h52.17.523,untitled,2023.2.2,59.89498014188146,2023-11-11 13h52.27.623043 +0800,
2,condition_1/rightstar.PNG,right,,,,,0,18,18,13,,,,,,,,,213.34165800000005,,,,,,,,,,,,,,,,,,,,,,,,,,,,,,,,,,,,,,,,,,,,,213.28795190000005,213.34165800000005,213.8016901000001,213.80171259999997,214.30088389999992,214.75296759999992,214.58540240000002,214.5854369000001,215.90339870000003,215.90339870000003,217.16963880000003,right,1,1.2539804000000458,None,216.71774950000008,,,,,,,,,,,,,,,,,,,,,,,,,,,,,,,,,,,,,,,,,,,,,,,,,,,,,,,,,,,,,,006,001,2023-11-11_13h52.17.523,untitled,2023.2.2,59.89498014188146,2023-11-11 13h52.27.623043 +0800,
1,condition_1/leftstar.PNG,left,,,,,0,19,19,16,,,,,,,,,217.23295789999997,,,,,,,,,,,,,,,,,,,,,,,,,,,,,,,,,,,,,,,,,,,,,217.17071340000007,217.23295789999997,217.68510530000003,217.68514499999992,218.18435750000003,218.61521310000012,218.46900180000011,218.46904339999992,219.7863729999999,219.7863729999999,220.17016910000007,left,1,0.37405660000013086,None,,,,,,,,,,,,,,,,,,,,,,,,,,,,,,,,,,,,,,,,,,,,,,,,,,,,,,,,,,,,,,,006,001,2023-11-11_13h52.17.523,untitled,2023.2.2,59.89498014188146,2023-11-11 13h52.27.623043 +0800,
2,condition_1/leftstar.PNG,left,,,,,0,20,20,22,,,,,,,,,220.2208877999999,,,,,,,,,,,,,,,,,,,,,,,,,,,,,,,,,,,,,,,,,,,,,220.1712649000001,220.2208877999999,220.68517380000003,220.68519500000002,221.18424860000005,221.59351629999992,221.47061400000007,221.4706467000001,222.78674980000005,222.78674980000005,223.1867423000001,left,1,0.38317289999986315,None,,,,,,,,,,,,,,,,,,,,,,,,,,,,,,,,,,,,,,,,,,,,,,,,,,,,,,,,,,,,,,,006,001,2023-11-11_13h52.17.523,untitled,2023.2.2,59.89498014188146,2023-11-11 13h52.27.623043 +0800,
8,condition_1/blank.PNG,space,,,,,0,21,21,10,,,,,,,,,223.23948930000006,,,,,,,,,,,,,,,,,,,,,,,,,,,,,,,,,,,,,,,,,,,,,223.18783170000006,223.23948930000006,223.70182060000002,223.7018458,224.20118789999992,224.57712229999993,224.48581760000002,224.48584970000002,225.80237770000008,225.80237770000008,226.85258219999992,space,1,1.0448363999998946,None,226.60104709999996,,,,,,,,,,,,,,,,,,,,,,,,,,,,,,,,,,,,,,,,,,,,,,,,,,,,,,,,,,,,,,006,001,2023-11-11_13h52.17.523,untitled,2023.2.2,59.89498014188146,2023-11-11 13h52.27.623043 +0800,
2,condition_1/rightstar.PNG,left,,,,,0,22,22,5,,,,,,,,,226.90564859999995,,,,,,,,,,,,,,,,,,,,,,,,,,,,,,,,,,,,,,,,,,,,,226.8537377,226.90564859999995,227.36857929999996,227.3686199000001,227.8677209,228.39555889999997,228.15210309999998,228.15214579999997,229.46954950000008,229.46954950000008,229.93540940000003,right,0,0.45547949999991033,None,,,,,,,,,,,,,,,,,,,,,,,,,,,,,,,,,,,,,,,,,,,,,,,,,,,,,,,,,,,,,,,006,001,2023-11-11_13h52.17.523,untitled,2023.2.2,59.89498014188146,2023-11-11 13h52.27.623043 +0800,
8,condition_1/rightstar.PNG,space,,,,,0,23,23,14,,,,,,,,,229.99097140000003,,,,,,,,,,,,,,,,,,,,,,,,,,,,,,,,,,,,,,,,,,,,,229.93595619999996,229.99097140000003,230.45146969999996,230.45148910000012,230.9510722,231.36589120000008,231.23562110000012,231.2356545,232.55317259999993,232.55317259999993,239.88636939999992,space,1,7.3188264000000345,None,233.36759460000007,,,,,,,,,,,,,,,,,,,,,,,,,,,,,,,,,,,,,,,,,,,,,,,,,,,,,,,,,,,,,,006,001,2023-11-11_13h52.17.523,untitled,2023.2.2,59.89498014188146,2023-11-11 13h52.27.623043 +0800,
1,condition_1/rightstar.PNG,right,,,,,0,24,24,12,,,,,,,,,239.94946879999998,,,,,,,,,,,,,,,,,,,,,,,,,,,,,,,,,,,,,,,,,,,,,239.88753969999993,239.94946879999998,240.40187379999998,240.40191600000003,240.9011656,241.32843219999995,241.18589799999995,241.18593239999996,242.5033436000001,242.5033436000001,242.8199201,right,1,0.3071666999999252,None,,,,,,,,,,,,,,,,,,,,,,,,,,,,,,,,,,,,,,,,,,,,,,,,,,,,,,,,,,,,,,,006,001,2023-11-11_13h52.17.523,untitled,2023.2.2,59.89498014188146,2023-11-11 13h52.27.623043 +0800,
9,condition_1/leftstar.PNG,space,,,,,1,0,25,24,,,,,,,,,242.88239980000003,,,,,,,,,,,,,,,,,,,,,,,,,,,,,,,,,,,,,,,,,,,,,242.82108100000005,242.88239980000003,243.3352007000001,243.33522510000012,243.8343698000001,244.23877489999995,244.11858310000002,244.1186083,245.4365554000001,245.4365554000001,245.65350549999994,space,1,0.21178949999989527,None,,,,,,,,,,,,,,,,,,,,,,,,,,,,,,,,,,,,,,,,,,,,,,,,,,,,,,,,,,,,,,,006,001,2023-11-11_13h52.17.523,untitled,2023.2.2,59.89498014188146,2023-11-11 13h52.27.623043 +0800,
1,condition_1/leftstar.PNG,left,,,,,1,1,26,16,,,,,,,,,245.7070146000001,,,,,,,,,,,,,,,,,,,,,,,,,,,,,,,,,,,,,,,,,,,,,245.65461660000005,245.7070146000001,246.16838559999997,246.1684247999999,246.66768649999995,247.0808939000001,246.95230229999993,246.9523362,248.27027320000002,248.27027320000002,248.6537843000001,left,1,0.3765880000000834,None,,,,,,,,,,,,,,,,,,,,,,,,,,,,,,,,,,,,,,,,,,,,,,,,,,,,,,,,,,,,,,,006,001,2023-11-11_13h52.17.523,untitled,2023.2.2,59.89498014188146,2023-11-11 13h52.27.623043 +0800,
9,condition_1/leftstar.PNG,space,,,,,1,2,27,19,,,,,,,,,248.7083126,,,,,,,,,,,,,,,,,,,,,,,,,,,,,,,,,,,,,,,,,,,,,248.65484289999995,248.7083126,249.1686959000001,249.16873099999998,249.66797700000006,250.07149800000002,249.9519846999999,249.95201040000006,251.26997649999998,251.26997649999998,251.38750170000003,space,1,0.10896370000000388,None,,,,,,,,,,,,,,,,,,,,,,,,,,,,,,,,,,,,,,,,,,,,,,,,,,,,,,,,,,,,,,,006,001,2023-11-11_13h52.17.523,untitled,2023.2.2,59.89498014188146,2023-11-11 13h52.27.623043 +0800,
9,condition_1/rightstar.PNG,space,,,,,1,3,28,7,,,,,,,,,251.44258689999992,,,,,,,,,,,,,,,,,,,,,,,,,,,,,,,,,,,,,,,,,,,,,251.38850619999994,251.44258689999992,251.90192969999998,251.9019545000001,252.4013445999999,252.80478089999997,252.6850821999999,252.6851074000001,254.00309270000002,254.00309270000002,254.3196734999999,space,1,0.31002570000009655,None,,,,,,,,,,,,,,,,,,,,,,,,,,,,,,,,,,,,,,,,,,,,,,,,,,,,,,,,,,,,,,,006,001,2023-11-11_13h52.17.523,untitled,2023.2.2,59.89498014188146,2023-11-11 13h52.27.623043 +0800,
2,condition_1/blank.PNG,space,,,,,1,4,29,9,,,,,,,,,254.37436019999996,,,,,,,,,,,,,,,,,,,,,,,,,,,,,,,,,,,,,,,,,,,,,254.32084650000002,254.37436019999996,254.83548220000011,254.8355071000001,255.3344681000001,255.74226360000011,255.61894559999996,255.61897829999998,256.9355373000001,256.9355373000001,262.33587050000006,space,1,5.384866900000134,None,257.734293,,,,,,,,,,,,,,,,,,,,,,,,,,,,,,,,,,,,,,,,,,,,,,,,,,,,,,,,,,,,,,006,001,2023-11-11_13h52.17.523,untitled,2023.2.2,59.89498014188146,2023-11-11 13h52.27.623043 +0800,
8,condition_1/leftstar.PNG,space,,,,,1,5,30,2,,,,,,,,,262.3932629000001,,,,,,,,,,,,,,,,,,,,,,,,,,,,,,,,,,,,,,,,,,,,,262.33696009999994,262.3932629000001,262.85197070000004,262.8519959,263.3510045999999,263.9880052000001,263.6356204000001,263.6356555,264.9531890999999,264.9531890999999,265.2703793999999,space,1,0.3156008999999358,None,,,,,,,,,,,,,,,,,,,,,,,,,,,,,,,,,,,,,,,,,,,,,,,,,,,,,,,,,,,,,,,006,001,2023-11-11_13h52.17.523,untitled,2023.2.2,59.89498014188146,2023-11-11 13h52.27.623043 +0800,
2,condition_1/rightstar.PNG,right,,,,,1,6,31,13,,,,,,,,,265.31842460000007,,,,,,,,,,,,,,,,,,,,,,,,,,,,,,,,,,,,,,,,,,,,,265.27146790000006,265.31842460000007,265.78502000000003,265.7850432,266.2842826000001,266.7186604000001,266.56861019999997,266.56863599999997,267.8860171000001,267.8860171000001,268.236713,right,1,0.3368877000000339,None,,,,,,,,,,,,,,,,,,,,,,,,,,,,,,,,,,,,,,,,,,,,,,,,,,,,,,,,,,,,,,,006,001,2023-11-11_13h52.17.523,untitled,2023.2.2,59.89498014188146,2023-11-11 13h52.27.623043 +0800,
1,condition_1/rightstar.PNG,right,,,,,1,7,32,4,,,,,,,,,268.29506779999997,,,,,,,,,,,,,,,,,,,,,,,,,,,,,,,,,,,,,,,,,,,,,268.2378741,268.29506779999997,268.7515873,268.7516124000001,269.2509471000001,269.6838811,269.5359337,269.5359681,270.8532324,270.8532324,271.18623219999995,right,1,0.31802509999988615,None,,,,,,,,,,,,,,,,,,,,,,,,,,,,,,,,,,,,,,,,,,,,,,,,,,,,,,,,,,,,,,,006,001,2023-11-11_13h52.17.523,untitled,2023.2.2,59.89498014188146,2023-11-11 13h52.27.623043 +0800,
2,condition_1/rightstar.PNG,left,,,,,1,8,33,5,,,,,,,,,271.28418209999995,,,,,,,,,,,,,,,,,,,,,,,,,,,,,,,,,,,,,,,,,,,,,271.1872687,271.28418209999995,271.7016860000001,271.7017095000001,272.20104790000005,272.6207308999999,272.48581820000004,272.4858607000001,273.80350939999994,273.80350939999994,274.10348840000006,right,0,0.294193899999982,None,,,,,,,,,,,,,,,,,,,,,,,,,,,,,,,,,,,,,,,,,,,,,,,,,,,,,,,,,,,,,,,006,001,2023-11-11_13h52.17.523,untitled,2023.2.2,59.89498014188146,2023-11-11 13h52.27.623043 +0800,
8,condition_1/leftstar.PNG,space,,,,,1,9,34,18,,,,,,,,,274.1724575999999,,,,,,,,,,,,,,,,,,,,,,,,,,,,,,,,,,,,,,,,,,,,,274.1049911,274.1724575999999,274.61859589999995,274.61863229999994,275.1179460000001,275.53062840000007,275.4025398000001,275.4025753000001,276.7202374000001,276.7202374000001,279.1024307,space,1,2.372260200000028,None,277.53454220000003,,,,,,,,,,,,,,,,,,,,,,,,,,,,,,,,,,,,,,,,,,,,,,,,,,,,,,,,,,,,,,006,001,2023-11-11_13h52.17.523,untitled,2023.2.2,59.89498014188146,2023-11-11 13h52.27.623043 +0800,
9,condition_1/blank.PNG,space,,,,,1,10,35,11,,,,,,,,,279.1564472,,,,,,,,,,,,,,,,,,,,,,,,,,,,,,,,,,,,,,,,,,,,,279.1035300000001,279.1564472,279.6188525,279.6189425,280.1179715999999,280.5389762,280.4020111,280.4020372,281.71894640000005,281.71894640000005,284.6530765,space,1,2.92834270000003,None,282.5177805999999,,,,,,,,,,,,,,,,,,,,,,,,,,,,,,,,,,,,,,,,,,,,,,,,,,,,,,,,,,,,,,006,001,2023-11-11_13h52.17.523,untitled,2023.2.2,59.89498014188146,2023-11-11 13h52.27.623043 +0800,
8,condition_1/blank.PNG,space,,,,,1,11,36,10,,,,,,,,,284.70508459999996,,,,,,,,,,,,,,,,,,,,,,,,,,,,,,,,,,,,,,,,,,,,,284.6542443000001,284.70508459999996,285.1686691,285.16869399999996,285.66777849999994,285.9936579,285.9533397,285.9533716000001,287.2689468000001,287.2689468000001,287.7865389000001,space,1,0.5146815999999035,None,,,,,,,,,,,,,,,,,,,,,,,,,,,,,,,,,,,,,,,,,,,,,,,,,,,,,,,,,,,,,,,006,001,2023-11-11_13h52.17.523,untitled,2023.2.2,59.89498014188146,2023-11-11 13h52.27.623043 +0800,
1,condition_1/rightstar.PNG,right,,,,,1,12,37,12,,,,,,,,,287.8358175000001,,,,,,,,,,,,,,,,,,,,,,,,,,,,,,,,,,,,,,,,,,,,,287.7876530000001,287.8358175000001,288.3018202999999,288.30184510000004,288.80109259999995,289.3319197999999,289.0854055,289.0854306000001,290.4031321,290.4031321,290.83682410000006,right,1,0.4242673000001105,None,,,,,,,,,,,,,,,,,,,,,,,,,,,,,,,,,,,,,,,,,,,,,,,,,,,,,,,,,,,,,,,006,001,2023-11-11_13h52.17.523,untitled,2023.2.2,59.89498014188146,2023-11-11 13h52.27.623043 +0800,
8,condition_1/rightstar.PNG,space,,,,,1,13,38,23,,,,,,,,,290.8935690999999,,,,,,,,,,,,,,,,,,,,,,,,,,,,,,,,,,,,,,,,,,,,,290.83790780000004,290.8935690999999,291.35209009999994,291.3521151,291.85123169999997,292.2815258999999,292.13575489999994,292.1357885,293.4531409000001,293.4531409000001,294.02033589999996,right,0,0.5600701999999274,None,,,,,,,,,,,,,,,,,,,,,,,,,,,,,,,,,,,,,,,,,,,,,,,,,,,,,,,,,,,,,,,006,001,2023-11-11_13h52.17.523,untitled,2023.2.2,59.89498014188146,2023-11-11 13h52.27.623043 +0800,
9,condition_1/leftstar.PNG,space,,,,,1,14,39,3,,,,,,,,,294.09914920000006,,,,,,,,,,,,,,,,,,,,,,,,,,,,,,,,,,,,,,,,,,,,,294.0214522000001,294.09914920000006,294.53528430000006,294.53531040000007,295.0342696,295.4479424000001,295.31903850000003,295.3190718999999,296.6365856,296.6365856,297.8863042999999,space,1,1.2417826000000787,None,297.4343294,,,,,,,,,,,,,,,,,,,,,,,,,,,,,,,,,,,,,,,,,,,,,,,,,,,,,,,,,,,,,,006,001,2023-11-11_13h52.17.523,untitled,2023.2.2,59.89498014188146,2023-11-11 13h52.27.623043 +0800,
8,condition_1/rightstar.PNG,space,,,,,1,15,40,6,,,,,,,,,297.9420276000001,,,,,,,,,,,,,,,,,,,,,,,,,,,,,,,,,,,,,,,,,,,,,297.8873974999999,297.9420276000001,298.4017543,298.4017785000001,298.9008827,299.31715770000005,299.1854572,299.18548310000006,300.5032349999999,300.5032349999999,301.53653110000005,space,1,1.0212883000001511,None,301.3177856,,,,,,,,,,,,,,,,,,,,,,,,,,,,,,,,,,,,,,,,,,,,,,,,,,,,,,,,,,,,,,006,001,2023-11-11_13h52.17.523,untitled,2023.2.2,59.89498014188146,2023-11-11 13h52.27.623043 +0800,
2,condition_1/leftstar.PNG,left,,,,,1,16,41,22,,,,,,,,,301.6014663000001,,,,,,,,,,,,,,,,,,,,,,,,,,,,,,,,,,,,,,,,,,,,,301.53770800000007,301.6014663000001,302.0519876999999,302.05202959999997,302.5510056999999,303.03283540000007,302.8353394999999,302.8353657,304.1531906,304.1531906,304.7537620999999,left,1,0.5893020999999408,None,,,,,,,,,,,,,,,,,,,,,,,,,,,,,,,,,,,,,,,,,,,,,,,,,,,,,,,,,,,,,,,006,001,2023-11-11_13h52.17.523,untitled,2023.2.2,59.89498014188146,2023-11-11 13h52.27.623043 +0800,
1,condition_1/rightstar.PNG,right,,,,,1,17,42,21,,,,,,,,,304.8069064000001,,,,,,,,,,,,,,,,,,,,,,,,,,,,,,,,,,,,,,,,,,,,,304.75486849999993,304.8069064000001,305.2688194,305.2688508000001,305.767797,306.17612899999995,306.0524052999999,306.0524396999999,307.3697563999999,307.3697563999999,308.2859579000001,right,1,0.9019800999999461,None,308.18448779999994,,,,,,,,,,,,,,,,,,,,,,,,,,,,,,,,,,,,,,,,,,,,,,,,,,,,,,,,,,,,,,006,001,2023-11-11_13h52.17.523,untitled,2023.2.2,59.89498014188146,2023-11-11 13h52.27.623043 +0800,
1,condition_1/leftstar.PNG,left,,,,,1,18,43,0,,,,,,,,,308.3429450000001,,,,,,,,,,,,,,,,,,,,,,,,,,,,,,,,,,,,,,,,,,,,,308.2870422000001,308.3429450000001,308.8019658999999,308.8019913999999,309.30092379999996,309.7264279000001,309.58556279999993,309.5855967,310.9035524000001,310.9035524000001,311.3201650000001,left,1,0.39935399999990295,None,,,,,,,,,,,,,,,,,,,,,,,,,,,,,,,,,,,,,,,,,,,,,,,,,,,,,,,,,,,,,,,006,001,2023-11-11_13h52.17.523,untitled,2023.2.2,59.89498014188146,2023-11-11 13h52.27.623043 +0800,
2,condition_1/leftstar.PNG,left,,,,,1,19,44,1,,,,,,,,,311.3783252999999,,,,,,,,,,,,,,,,,,,,,,,,,,,,,,,,,,,,,,,,,,,,,311.3212635,311.3783252999999,311.83527090000007,311.835294,312.33432930000004,312.74614440000005,312.61869980000006,312.6187261,313.9364908,313.9364908,314.2867199,left,1,0.3341958999999406,None,,,,,,,,,,,,,,,,,,,,,,,,,,,,,,,,,,,,,,,,,,,,,,,,,,,,,,,,,,,,,,,006,001,2023-11-11_13h52.17.523,untitled,2023.2.2,59.89498014188146,2023-11-11 13h52.27.623043 +0800,
1,condition_1/blank.PNG,space,,,,,1,20,45,8,,,,,,,,,314.3390770000001,,,,,,,,,,,,,,,,,,,,,,,,,,,,,,,,,,,,,,,,,,,,,314.28778439999996,314.3390770000001,314.8017893000001,314.8018142000001,315.3011076,315.72433120000005,315.58539930000006,315.5854403000001,316.9024093999999,316.9024093999999,319.6371101,space,1,2.7292620999999144,None,317.7012073000001,,,,,,,,,,,,,,,,,,,,,,,,,,,,,,,,,,,,,,,,,,,,,,,,,,,,,,,,,,,,,,006,001,2023-11-11_13h52.17.523,untitled,2023.2.2,59.89498014188146,2023-11-11 13h52.27.623043 +0800,
2,condition_1/blank.PNG,space,,,,,1,21,46,20,,,,,,,,,319.6892654999999,,,,,,,,,,,,,,,,,,,,,,,,,,,,,,,,,,,,,,,,,,,,,319.63818190000006,319.6892654999999,320.1517128999999,320.15174920000004,320.65145570000004,320.9715053,320.93549770000004,320.93553139999995,322.2523392999999,322.2523392999999,322.7537884000001,space,1,0.4924346999998761,None,,,,,,,,,,,,,,,,,,,,,,,,,,,,,,,,,,,,,,,,,,,,,,,,,,,,,,,,,,,,,,,006,001,2023-11-11_13h52.17.523,untitled,2023.2.2,59.89498014188146,2023-11-11 13h52.27.623043 +0800,
8,condition_1/rightstar.PNG,space,,,,,1,22,47,14,,,,,,,,,322.8048553000001,,,,,,,,,,,,,,,,,,,,,,,,,,,,,,,,,,,,,,,,,,,,,322.7548687000001,322.8048553000001,323.2684345,323.2684587000001,323.7678092000001,324.2980577000001,324.0522549,324.0522800000001,325.3699477,325.3699477,325.8530177,space,1,0.46734540000011293,None,,,,,,,,,,,,,,,,,,,,,,,,,,,,,,,,,,,,,,,,,,,,,,,,,,,,,,,,,,,,,,,006,001,2023-11-11_13h52.17.523,untitled,2023.2.2,59.89498014188146,2023-11-11 13h52.27.623043 +0800,
2,condition_1/leftstar.PNG,left,,,,,1,23,48,17,,,,,,,,,325.9132694,,,,,,,,,,,,,,,,,,,,,,,,,,,,,,,,,,,,,,,,,,,,,325.85411150000004,325.9132694,326.3686800999999,326.36873489999994,326.8678987999999,327.2998662,327.15207409999994,327.15210060000004,328.46997910000005,328.46997910000005,328.9037423,left,1,0.4157408999999461,None,,,,,,,,,,,,,,,,,,,,,,,,,,,,,,,,,,,,,,,,,,,,,,,,,,,,,,,,,,,,,,,006,001,2023-11-11_13h52.17.523,untitled,2023.2.2,59.89498014188146,2023-11-11 13h52.27.623043 +0800,
9,condition_1/rightstar.PNG,space,,,,,1,24,49,15,,,,,,,,,328.9569810999999,,,,,,,,,,,,,,,,,,,,,,,,,,,,,,,,,,,,,,,,,,,,,328.90494119999994,328.9569810999999,329.4183207000001,329.41834470000003,329.9176758000001,330.3393959,330.20262,330.2026529,331.51993330000005,331.51993330000005,331.63700199999994,space,1,0.10484429999996792,None,,,,,,,,,,,,,,,,,,,,,,,,,,,,,,,,,,,,,,,,,,,,,,,,,,,,,,,,,,,,,,,006,001,2023-11-11_13h52.17.523,untitled,2023.2.2,59.89498014188146,2023-11-11 13h52.27.623043 +0800,
,,,,,,,,,,,,,,,,,,,,,,,,,,,,,,,,,,,,,,,,,,,,,,,,,,,,,,,,,,,,,,,,,,,,,,,,,,,,,,,,331.6377987000001,331.65103,331.65103,333.5196029000001,space,1.8536321999999927,None,,,,,,,,,,,,,,,,,,,,,,,,,,,,,,,,,,,,,,,,,,,,,,,,,,,,,,,006,001,2023-11-11_13h52.17.523,untitled,2023.2.2,59.89498014188146,2023-11-11 13h52.27.623043 +0800,
,,,,,,,,,,,,,,,,,,,,,,,,,,,,,,,,,,,,,,,,,,,,,,,,,,,,,,,,,,,,,,,,,,,,,,,,,,,,,,,,,,,,,,,333.51965629999995,333.5344209,333.5344209,357.3869827000001,space,23.83645660000002,None,,,,,,,,,,,,,,,,,,,,,,,,,,,,,,,,,,,,,,,,,,,,,,,,006,001,2023-11-11_13h52.17.523,untitled,2023.2.2,59.89498014188146,2023-11-11 13h52.27.623043 +0800,
8,test2/rightstar.PNG,right,,,,,,,,,0,0,0,1,,,,,357.49927589999993,,,,,,,,,,,,,,,,,,,,,,,,,,,,,,,,,,,,,,,,,,,,,,,,,,,,,,,,,,,,,,,,,,,,,,,,,,,357.40606389999994,357.49927589999993,357.90156890000003,357.901605,358.4011115999999,358.96848939999995,358.6852059,358.6852404000001,360.01599609999994,360.01599609999994,360.8177802,361.62023610000006,right,1.5940680999999586,None,,,,,,,,,,,,,,,,,,,,,,,,,,,,,,,,,006,001,2023-11-11_13h52.17.523,untitled,2023.2.2,59.89498014188146,2023-11-11 13h52.27.623043 +0800,
1,test2/blank.PNG,space,,,,,,,,,0,1,1,2,,,,,361.6839844000001,,,,,,,,,,,,,,,,,,,,,,,,,,,,,,,,,,,,,,,,,,,,,,,,,,,,,,,,,,,,,,,,,,,,,,,,,,,361.6215829,361.6839844000001,362.13501610000003,362.1350556,362.6342164,363.0155314000001,362.91896429999997,362.9189968999999,364.2357151000001,364.2357151000001,365.03429370000003,367.2699493,space,3.0256721000000653,None,,,,,,,,,,,,,,,,,,,,,,,,,,,,,,,,,006,001,2023-11-11_13h52.17.523,untitled,2023.2.2,59.89498014188146,2023-11-11 13h52.27.623043 +0800,
8,test2/leftstar.PNG,left,,,,,,,,,0,2,2,5,,,,,367.3338066000001,,,,,,,,,,,,,,,,,,,,,,,,,,,,,,,,,,,,,,,,,,,,,,,,,,,,,,,,,,,,,,,,,,,,,,,,,,,367.27087630000005,367.3338066000001,367.7853439999999,367.78537069999993,368.2844030000001,368.72502110000005,368.56841269999995,368.56843860000004,369.8864582000001,369.8864582000001,,370.31973270000003,space,0.4226303000000371,None,,,,,,,,,,,,,,,,,,,,,,,,,,,,,,,,,006,001,2023-11-11_13h52.17.523,untitled,2023.2.2,59.89498014188146,2023-11-11 13h52.27.623043 +0800,
2,test2/leftstar.PNG,space,,,,,,,,,0,3,3,4,,,,,370.3835719000001,,,,,,,,,,,,,,,,,,,,,,,,,,,,,,,,,,,,,,,,,,,,,,,,,,,,,,,,,,,,,,,,,,,,,,,,,,,370.3207076000001,370.3835719000001,370.8350749000001,370.83510060000003,371.3342586000001,371.8222059,371.61921929999994,371.6192535,372.9366296999999,372.9366296999999,373.7509597999999,373.80264379999994,left,0.8595035000000735,None,,,,,,,,,,,,,,,,,,,,,,,,,,,,,,,,,006,001,2023-11-11_13h52.17.523,untitled,2023.2.2,59.89498014188146,2023-11-11 13h52.27.623043 +0800,
1,test2/leftstar.PNG,space,,,,,,,,,0,4,4,0,,,,,373.8525959000001,,,,,,,,,,,,,,,,,,,,,,,,,,,,,,,,,,,,,,,,,,,,,,,,,,,,,,,,,,,,,,,,,,,,,,,,,,,373.8035615000001,373.8525959000001,374.3182462,374.3182709,374.8179688,375.23432249999996,375.10237069999994,375.10239720000004,376.42001490000007,376.42001490000007,,376.5533103,right,0.13111810000009427,None,,,,,,,,,,,,,,,,,,,,,,,,,,,,,,,,,006,001,2023-11-11_13h52.17.523,untitled,2023.2.2,59.89498014188146,2023-11-11 13h52.27.623043 +0800,
9,test2/rightstar.PNG,right,,,,,,,,,0,5,5,3,,,,,376.60567719999995,,,,,,,,,,,,,,,,,,,,,,,,,,,,,,,,,,,,,,,,,,,,,,,,,,,,,,,,,,,,,,,,,,,,,,,,,,,376.5542708999999,376.60567719999995,377.06869830000005,377.06872539999995,377.56778099999997,377.9921663,377.8516291000001,377.8516489000001,379.1701842,379.1701842,,379.536474,right,0.357256100000086,None,,,,,,,,,,,,,,,,,,,,,,,,,,,,,,,,,006,001,2023-11-11_13h52.17.523,untitled,2023.2.2,59.89498014188146,2023-11-11 13h52.27.623043 +0800,
,,,,,,,,,,,,,,,,,,,,,,,,,,,,,,,,,,,,,,,,,,,,,,,,,,,,,,,,,,,,,,,,,,,,,,,,,,,,,,,,,,,,,,,,,,,,,,,,,,,,,,,,,,,,,379.53707080000004,379.55091289999996,379.55091289999996,380.5510792,391.48635119999994,space,11.93104429999994,None,,,,,,,,,,,,,,,,,,,,,,,,,006,001,2023-11-11_13h52.17.523,untitled,2023.2.2,59.89498014188146,2023-11-11 13h52.27.623043 +0800,
,,,,,,,,,,,,,,,,,,,,,,,,,,,,,,,,,,,,,,,,,,,,,,,,,,,,,,,,,,,,,,,,,,,,,,,,,,,,,,,,,,,,,,,,,,,,,,,,,,,,,,,,,,,,,,,,,,,,,391.4864166,391.50132540000004,391.50132540000004,392.5009963,393.15328999999997,space,1.6455203000000438,None,,,,,,,,,,,,,,,,,006,001,2023-11-11_13h52.17.523,untitled,2023.2.2,59.89498014188146,2023-11-11 13h52.27.623043 +0800,
8,condition_2/leftstar.PNG,left,,,,,,,,,,,,,0,0,0,18,393.27425300000004,,,,,,,,,,,,,,,,,,,,,,,,,,,,,,,,,,,,,,,,,,,,,,,,,,,,,,,,,,,,,,,,,,,,,,,,,,,,,,,,,,,,,,,,,,,,,,,,,,,,,,,,,,393.17519960000004,393.27425300000004,393.66868339999996,393.6687122000001,394.1680558999999,394.7234827,394.4524824,394.4525188,395.7833198999999,395.7833198999999,396.58433059999993,400.1368723999999,space,0,4.345673000000033,None,006,001,2023-11-11_13h52.17.523,untitled,2023.2.2,59.89498014188146,2023-11-11 13h52.27.623043 +0800,
1,condition_2/leftstar.PNG,space,,,,,,,,,,,,,0,1,1,0,400.1899776,,,,,,,,,,,,,,,,,,,,,,,,,,,,,,,,,,,,,,,,,,,,,,,,,,,,,,,,,,,,,,,,,,,,,,,,,,,,,,,,,,,,,,,,,,,,,,,,,,,,,,,,,,400.13844659999995,400.1899776,400.6520633,400.6520886999999,401.1510972000001,401.55555559999993,401.4352635,401.43529050000006,402.7532811000001,402.7532811000001,,403.1204780999999,right,0,0.35700779999979204,None,006,001,2023-11-11_13h52.17.523,untitled,2023.2.2,59.89498014188146,2023-11-11 13h52.27.623043 +0800,
2,condition_2/rightstar.PNG,space,,,,,,,,,,,,,0,2,2,21,403.1773809000001,,,,,,,,,,,,,,,,,,,,,,,,,,,,,,,,,,,,,,,,,,,,,,,,,,,,,,,,,,,,,,,,,,,,,,,,,,,,,,,,,,,,,,,,,,,,,,,,,,,,,,,,,,403.1215512000001,403.1773809000001,403.6352362,403.6352830999999,404.1344862000001,404.5565182,404.41904109999996,404.4190814000001,405.73682770000005,405.73682770000005,406.55086890000007,406.55255050000005,right,0,0.8136030000000574,None,006,001,2023-11-11_13h52.17.523,untitled,2023.2.2,59.89498014188146,2023-11-11 13h52.27.623043 +0800,
1,condition_2/leftstar.PNG,space,,,,,,,,,,,,,0,3,3,22,406.6140035000001,,,,,,,,,,,,,,,,,,,,,,,,,,,,,,,,,,,,,,,,,,,,,,,,,,,,,,,,,,,,,,,,,,,,,,,,,,,,,,,,,,,,,,,,,,,,,,,,,,,,,,,,,,406.55369410000003,406.6140035000001,407.0687296000001,407.0687580000001,407.56787770000005,408.0351826000001,407.85200899999995,407.85204410000006,409.16993350000007,409.16993350000007,409.9846331000001,410.50268140000003,space,1,1.3205012999999326,None,006,001,2023-11-11_13h52.17.523,untitled,2023.2.2,59.89498014188146,2023-11-11 13h52.27.623043 +0800,
2,condition_2/rightstar.PNG,space,,,,,,,,,,,,,0,4,4,5,410.5631114,,,,,,,,,,,,,,,,,,,,,,,,,,,,,,,,,,,,,,,,,,,,,,,,,,,,,,,,,,,,,,,,,,,,,,,,,,,,,,,,,,,,,,,,,,,,,,,,,,,,,,,,,,410.5037855999999,410.5631114,411.0184945000001,411.0185162,411.5178742999999,411.9458727000001,411.80257430000006,411.8026104999999,413.1199971000001,413.1199971000001,,413.5199723999999,space,1,0.38593730000002324,None,006,001,2023-11-11_13h52.17.523,untitled,2023.2.2,59.89498014188146,2023-11-11 13h52.27.623043 +0800,
2,condition_2/leftstar.PNG,space,,,,,,,,,,,,,0,5,5,1,413.5778163,,,,,,,,,,,,,,,,,,,,,,,,,,,,,,,,,,,,,,,,,,,,,,,,,,,,,,,,,,,,,,,,,,,,,,,,,,,,,,,,,,,,,,,,,,,,,,,,,,,,,,,,,,413.5211038,413.5778163,414.0350334,414.0350764,414.5343560000001,414.9447394000001,414.81921850000003,414.81925580000006,416.13653079999995,416.13653079999995,,416.63716980000004,space,1,0.49574219999999514,None,006,001,2023-11-11_13h52.17.523,untitled,2023.2.2,59.89498014188146,2023-11-11 13h52.27.623043 +0800,
1,condition_2/rightstar.PNG,space,,,,,,,,,,,,,0,6,6,12,416.6897395000001,,,,,,,,,,,,,,,,,,,,,,,,,,,,,,,,,,,,,,,,,,,,,,,,,,,,,,,,,,,,,,,,,,,,,,,,,,,,,,,,,,,,,,,,,,,,,,,,,,,,,,,,,,416.6382033,416.6897395000001,417.1519679999999,417.1520104000001,417.6510679999999,418.05651850000004,417.93564749999996,417.93567770000004,419.25346850000005,419.25346850000005,,419.6370658000001,space,1,0.37118660000010095,None,006,001,2023-11-11_13h52.17.523,untitled,2023.2.2,59.89498014188146,2023-11-11 13h52.27.623043 +0800,
1,condition_2/blank.PNG,space,,,,,,,,,,,,,0,7,7,8,419.68834029999994,,,,,,,,,,,,,,,,,,,,,,,,,,,,,,,,,,,,,,,,,,,,,,,,,,,,,,,,,,,,,,,,,,,,,,,,,,,,,,,,,,,,,,,,,,,,,,,,,,,,,,,,,,419.6381924,419.68834029999994,420.1517689,420.1517968999999,420.6510238999999,421.0760732000001,420.9355132999999,420.93554990000007,422.2522558999999,422.2522558999999,423.0511818,423.58599849999996,space,1,1.3250626999999895,None,006,001,2023-11-11_13h52.17.523,untitled,2023.2.2,59.89498014188146,2023-11-11 13h52.27.623043 +0800,
8,condition_2/blank.PNG,space,,,,,,,,,,,,,0,8,8,24,423.6364383,,,,,,,,,,,,,,,,,,,,,,,,,,,,,,,,,,,,,,,,,,,,,,,,,,,,,,,,,,,,,,,,,,,,,,,,,,,,,,,,,,,,,,,,,,,,,,,,,,,,,,,,,,423.5871729999999,423.6364383,424.10174170000005,424.10176980000006,424.60112000000004,424.9218111,424.88571249999995,424.8858012999999,426.2026642000001,426.2026642000001,427.0179763000001,429.0695214,space,1,2.850314699999899,None,006,001,2023-11-11_13h52.17.523,untitled,2023.2.2,59.89498014188146,2023-11-11 13h52.27.623043 +0800,
9,condition_2/rightstar.PNG,right,,,,,,,,,,,,,0,9,9,15,429.13257550000003,,,,,,,,,,,,,,,,,,,,,,,,,,,,,,,,,,,,,,,,,,,,,,,,,,,,,,,,,,,,,,,,,,,,,,,,,,,,,,,,,,,,,,,,,,,,,,,,,,,,,,,,,,429.07060520000005,429.13257550000003,429.58533710000006,429.58536460000005,430.08445959999995,430.64195300000006,430.3681715,430.36818760000006,431.68686879999996,431.68686879999996,,432.2531641999999,right,1,0.5594605999999658,None,006,001,2023-11-11_13h52.17.523,untitled,2023.2.2,59.89498014188146,2023-11-11 13h52.27.623043 +0800,
8,condition_2/blank.PNG,space,,,,,,,,,,,,,0,10,10,10,432.3059329,,,,,,,,,,,,,,,,,,,,,,,,,,,,,,,,,,,,,,,,,,,,,,,,,,,,,,,,,,,,,,,,,,,,,,,,,,,,,,,,,,,,,,,,,,,,,,,,,,,,,,,,,,432.2542631000001,432.3059329,432.7687423,432.7687682999999,433.2676357,433.6493660000001,433.55209790000004,433.55212600000004,434.8687565,434.8687565,435.6676285000001,436.2194488,space,1,1.3469334000001254,None,006,001,2023-11-11_13h52.17.523,untitled,2023.2.2,59.89498014188146,2023-11-11 13h52.27.623043 +0800,
8,condition_2/leftstar.PNG,left,,,,,,,,,,,,,0,11,11,2,436.2743820999999,,,,,,,,,,,,,,,,,,,,,,,,,,,,,,,,,,,,,,,,,,,,,,,,,,,,,,,,,,,,,,,,,,,,,,,,,,,,,,,,,,,,,,,,,,,,,,,,,,,,,,,,,,436.2204776000001,436.2743820999999,436.7352237,436.7352496000001,437.2345126,437.7520217000001,437.5189286,437.51895609999997,438.8369774,438.8369774,,439.3364285,left,1,0.4889276000001246,None,006,001,2023-11-11_13h52.17.523,untitled,2023.2.2,59.89498014188146,2023-11-11 13h52.27.623043 +0800,
9,condition_2/leftstar.PNG,left,,,,,,,,,,,,,0,12,12,3,439.39870640000004,,,,,,,,,,,,,,,,,,,,,,,,,,,,,,,,,,,,,,,,,,,,,,,,,,,,,,,,,,,,,,,,,,,,,,,,,,,,,,,,,,,,,,,,,,,,,,,,,,,,,,,,,,439.3375186999999,439.39870640000004,439.8520616999999,439.8520899,440.3512935000001,440.7567555999999,440.63568269999996,440.63571909999996,441.9542048999999,441.9542048999999,,442.4199922,left,1,0.45806609999999637,None,006,001,2023-11-11_13h52.17.523,untitled,2023.2.2,59.89498014188146,2023-11-11 13h52.27.623043 +0800,
9,condition_2/blank.PNG,space,,,,,,,,,,,,,0,13,13,11,442.4735820000001,,,,,,,,,,,,,,,,,,,,,,,,,,,,,,,,,,,,,,,,,,,,,,,,,,,,,,,,,,,,,,,,,,,,,,,,,,,,,,,,,,,,,,,,,,,,,,,,,,,,,,,,,,442.4210941000001,442.4735820000001,442.93553380000003,442.93555990000004,443.43448179999996,443.7968998000001,443.7184978,443.71852420000005,445.0355078,445.0355078,445.8345935,445.90299989999994,space,1,0.8633581999999933,None,006,001,2023-11-11_13h52.17.523,untitled,2023.2.2,59.89498014188146,2023-11-11 13h52.27.623043 +0800,
2,condition_2/blank.PNG,space,,,,,,,,,,,,,0,14,14,9,445.9614707999999,,,,,,,,,,,,,,,,,,,,,,,,,,,,,,,,,,,,,,,,,,,,,,,,,,,,,,,,,,,,,,,,,,,,,,,,,,,,,,,,,,,,,,,,,,,,,,,,,,,,,,,,,,445.90411960000006,445.9614707999999,446.41855409999994,446.4185999000001,446.9177545,447.2378851000001,447.2021763,447.20221190000007,448.51907370000004,448.51907370000004,449.31765070000006,450.4362185,space,1,1.9145405000001574,None,006,001,2023-11-11_13h52.17.523,untitled,2023.2.2,59.89498014188146,2023-11-11 13h52.27.623043 +0800,
2,condition_2/leftstar.PNG,space,,,,,,,,,,,,,0,15,15,17,450.4922858,,,,,,,,,,,,,,,,,,,,,,,,,,,,,,,,,,,,,,,,,,,,,,,,,,,,,,,,,,,,,,,,,,,,,,,,,,,,,,,,,,,,,,,,,,,,,,,,,,,,,,,,,,450.4375672000001,450.4922858,450.9518714999999,450.951992,451.4511239000001,452.02837679999993,451.73559649999993,451.7356284,453.05311359999996,453.05311359999996,,453.6032692000001,left,0,0.542600800000173,None,006,001,2023-11-11_13h52.17.523,untitled,2023.2.2,59.89498014188146,2023-11-11 13h52.27.623043 +0800,
8,condition_2/rightstar.PNG,right,,,,,,,,,,,,,0,16,16,14,453.66291879999994,,,,,,,,,,,,,,,,,,,,,,,,,,,,,,,,,,,,,,,,,,,,,,,,,,,,,,,,,,,,,,,,,,,,,,,,,,,,,,,,,,,,,,,,,,,,,,,,,,,,,,,,,,453.6043473,453.66291879999994,454.11850129999993,454.1185481,454.61767280000004,455.0241475,454.90215220000005,454.902188,456.2200069999999,456.2200069999999,,456.62040509999997,right,1,0.3841030999999475,None,006,001,2023-11-11_13h52.17.523,untitled,2023.2.2,59.89498014188146,2023-11-11 13h52.27.623043 +0800,
9,condition_2/rightstar.PNG,right,,,,,,,,,,,,,0,17,17,7,456.6793055999999,,,,,,,,,,,,,,,,,,,,,,,,,,,,,,,,,,,,,,,,,,,,,,,,,,,,,,,,,,,,,,,,,,,,,,,,,,,,,,,,,,,,,,,,,,,,,,,,,,,,,,,,,,456.62160040000003,456.6793055999999,457.1358488999999,457.13587600000005,457.6347246,458.0464164,457.9181911999999,457.9182083999999,459.23641939999993,459.23641939999993,,459.6035873999999,right,1,0.3507873999999447,None,006,001,2023-11-11_13h52.17.523,untitled,2023.2.2,59.89498014188146,2023-11-11 13h52.27.623043 +0800,
8,condition_2/rightstar.PNG,right,,,,,,,,,,,,,0,18,18,23,459.6595792999999,,,,,,,,,,,,,,,,,,,,,,,,,,,,,,,,,,,,,,,,,,,,,,,,,,,,,,,,,,,,,,,,,,,,,,,,,,,,,,,,,,,,,,,,,,,,,,,,,,,,,,,,,,459.6046951999999,459.6595792999999,460.1184373000001,460.1184777000001,460.61775379999995,461.02211280000006,460.9024151000001,460.9024523999999,462.2198532,462.2198532,,462.5699517999999,right,1,0.34291849999999613,None,006,001,2023-11-11_13h52.17.523,untitled,2023.2.2,59.89498014188146,2023-11-11 13h52.27.623043 +0800,
9,condition_2/leftstar.PNG,left,,,,,,,,,,,,,0,19,19,19,462.6219444999999,,,,,,,,,,,,,,,,,,,,,,,,,,,,,,,,,,,,,,,,,,,,,,,,,,,,,,,,,,,,,,,,,,,,,,,,,,,,,,,,,,,,,,,,,,,,,,,,,,,,,,,,,,462.57109489999993,462.6219444999999,463.085233,463.08526129999996,463.58444080000004,463.98030270000004,463.86855390000005,463.86859329999993,465.1870784,465.1870784,,465.5699714,left,1,0.3775358000000324,None,006,001,2023-11-11_13h52.17.523,untitled,2023.2.2,59.89498014188146,2023-11-11 13h52.27.623043 +0800,
2,condition_2/rightstar.PNG,space,,,,,,,,,,,,,0,20,20,13,465.63832419999994,,,,,,,,,,,,,,,,,,,,,,,,,,,,,,,,,,,,,,,,,,,,,,,,,,,,,,,,,,,,,,,,,,,,,,,,,,,,,,,,,,,,,,,,,,,,,,,,,,,,,,,,,,465.57111940000004,465.63832419999994,466.0852235,466.0852516,466.5844886,467.0475326999999,466.8689360999999,466.8689750000001,468.18643339999994,468.18643339999994,,468.7701454999999,space,1,0.5790518000001157,None,006,001,2023-11-11_13h52.17.523,untitled,2023.2.2,59.89498014188146,2023-11-11 13h52.27.623043 +0800,
8,condition_2/rightstar.PNG,right,,,,,,,,,,,,,0,21,21,6,468.8265782000001,,,,,,,,,,,,,,,,,,,,,,,,,,,,,,,,,,,,,,,,,,,,,,,,,,,,,,,,,,,,,,,,,,,,,,,,,,,,,,,,,,,,,,,,,,,,,,,,,,,,,,,,,,468.7712412000001,468.8265782000001,469.2850169000001,469.285042,469.7845373,470.2010310999999,470.0690816000001,470.06911289999994,471.38647149999997,471.38647149999997,,471.7371923999999,right,1,0.3459984000000986,None,006,001,2023-11-11_13h52.17.523,untitled,2023.2.2,59.89498014188146,2023-11-11 13h52.27.623043 +0800,
1,condition_2/rightstar.PNG,space,,,,,,,,,,,,,0,22,22,4,471.7886486,,,,,,,,,,,,,,,,,,,,,,,,,,,,,,,,,,,,,,,,,,,,,,,,,,,,,,,,,,,,,,,,,,,,,,,,,,,,,,,,,,,,,,,,,,,,,,,,,,,,,,,,,,471.7382680999999,471.7886486,472.25173259999997,472.2517613,472.7511554,473.1657755000001,473.0359658,473.03600460000007,474.35323500000004,474.35323500000004,,474.63725769999996,space,1,0.27137759999982336,None,006,001,2023-11-11_13h52.17.523,untitled,2023.2.2,59.89498014188146,2023-11-11 13h52.27.623043 +0800,
1,condition_2/leftstar.PNG,space,,,,,,,,,,,,,0,23,23,16,474.68845609999994,,,,,,,,,,,,,,,,,,,,,,,,,,,,,,,,,,,,,,,,,,,,,,,,,,,,,,,,,,,,,,,,,,,,,,,,,,,,,,,,,,,,,,,,,,,,,,,,,,,,,,,,,,474.63834999999995,474.68845609999994,475.15231719999997,475.15235729999995,475.65114229999995,476.0540687,475.9359939000001,475.93603200000007,477.25398199999995,477.25398199999995,,477.2862559,space,1,0.01572970000006535,None,006,001,2023-11-11_13h52.17.523,untitled,2023.2.2,59.89498014188146,2023-11-11 13h52.27.623043 +0800,
9,condition_2/leftstar.PNG,left,,,,,,,,,,,,,0,24,24,20,477.3379844000001,,,,,,,,,,,,,,,,,,,,,,,,,,,,,,,,,,,,,,,,,,,,,,,,,,,,,,,,,,,,,,,,,,,,,,,,,,,,,,,,,,,,,,,,,,,,,,,,,,,,,,,,,,477.2869949000001,477.3379844000001,477.8017867000001,477.8018139999999,478.3013549,478.70270260000007,478.58537049999995,478.5853990999999,479.9032092,479.9032092,,480.28639380000004,left,1,0.36944149999999354,None,006,001,2023-11-11_13h52.17.523,untitled,2023.2.2,59.89498014188146,2023-11-11 13h52.27.623043 +0800,
8,condition_2/blank.PNG,space,,,,,,,,,,,,,1,0,25,10,480.3339802999999,,,,,,,,,,,,,,,,,,,,,,,,,,,,,,,,,,,,,,,,,,,,,,,,,,,,,,,,,,,,,,,,,,,,,,,,,,,,,,,,,,,,,,,,,,,,,,,,,,,,,,,,,,480.2872542,480.3339802999999,480.80214320000005,480.8021719000001,481.3012258000001,481.7215569,481.585421,481.5854489000001,482.90209230000005,482.90209230000005,483.70115880000003,486.3359941000001,space,1,3.4264636000000337,None,006,001,2023-11-11_13h52.17.523,untitled,2023.2.2,59.89498014188146,2023-11-11 13h52.27.623043 +0800,
8,condition_2/leftstar.PNG,left,,,,,,,,,,,,,1,1,26,2,486.39253899999994,,,,,,,,,,,,,,,,,,,,,,,,,,,,,,,,,,,,,,,,,,,,,,,,,,,,,,,,,,,,,,,,,,,,,,,,,,,,,,,,,,,,,,,,,,,,,,,,,,,,,,,,,,486.33717939999997,486.39253899999994,486.8520000000001,486.85203980000006,487.3511587999999,487.87285670000006,487.63562750000006,487.6356645999999,488.95329489999995,488.95329489999995,,489.35327529999995,left,1,0.38492810000002464,None,006,001,2023-11-11_13h52.17.523,untitled,2023.2.2,59.89498014188146,2023-11-11 13h52.27.623043 +0800,
9,condition_2/blank.PNG,space,,,,,,,,,,,,,1,2,27,11,489.4045742999999,,,,,,,,,,,,,,,,,,,,,,,,,,,,,,,,,,,,,,,,,,,,,,,,,,,,,,,,,,,,,,,,,,,,,,,,,,,,,,,,,,,,,,,,,,,,,,,,,,,,,,,,,,489.3543437000001,489.4045742999999,489.8686728,489.8687150999999,490.3678562,490.73960179999995,490.6523801000001,490.652415,491.96884750000004,491.96884750000004,,492.1536086000001,space,1,0.17399440000008326,None,006,001,2023-11-11_13h52.17.523,untitled,2023.2.2,59.89498014188146,2023-11-11 13h52.27.623043 +0800,
1,condition_2/leftstar.PNG,space,,,,,,,,,,,,,1,3,28,16,492.2088630999999,,,,,,,,,,,,,,,,,,,,,,,,,,,,,,,,,,,,,,,,,,,,,,,,,,,,,,,,,,,,,,,,,,,,,,,,,,,,,,,,,,,,,,,,,,,,,,,,,,,,,,,,,,492.15467220000005,492.2088630999999,492.66868769999996,492.66873340000006,493.16773450000005,493.7106285,493.45195020000006,493.45197729999995,494.77001029999997,494.77001029999997,,495.21971729999996,space,1,0.4330587000001742,None,006,001,2023-11-11_13h52.17.523,untitled,2023.2.2,59.89498014188146,2023-11-11 13h52.27.623043 +0800,
2,condition_2/rightstar.PNG,space,,,,,,,,,,,,,1,4,29,21,495.2756265999999,,,,,,,,,,,,,,,,,,,,,,,,,,,,,,,,,,,,,,,,,,,,,,,,,,,,,,,,,,,,,,,,,,,,,,,,,,,,,,,,,,,,,,,,,,,,,,,,,,,,,,,,,,495.22079370000006,495.2756265999999,495.7352874999999,495.73532539999997,496.23438639999995,496.633239,496.5187363,496.5187757000001,497.8367031,497.8367031,,497.8698448,space,1,0.027231799999981376,None,006,001,2023-11-11_13h52.17.523,untitled,2023.2.2,59.89498014188146,2023-11-11 13h52.27.623043 +0800,
1,condition_2/blank.PNG,space,,,,,,,,,,,,,1,5,30,8,497.9195595000001,,,,,,,,,,,,,,,,,,,,,,,,,,,,,,,,,,,,,,,,,,,,,,,,,,,,,,,,,,,,,,,,,,,,,,,,,,,,,,,,,,,,,,,,,,,,,,,,,,,,,,,,,,497.8708689,497.9195595000001,498.3849791,498.3850170999999,498.88477869999997,499.24892550000004,499.16878539999993,499.168823,500.4858732,500.4858732,,500.72051710000005,space,1,0.23205699999994067,None,006,001,2023-11-11_13h52.17.523,untitled,2023.2.2,59.89498014188146,2023-11-11 13h52.27.623043 +0800,
8,condition_2/blank.PNG,space,,,,,,,,,,,,,1,6,31,24,500.79074650000007,,,,,,,,,,,,,,,,,,,,,,,,,,,,,,,,,,,,,,,,,,,,,,,,,,,,,,,,,,,,,,,,,,,,,,,,,,,,,,,,,,,,,,,,,,,,,,,,,,,,,,,,,,500.7216062,500.79074650000007,501.23546899999997,501.23551580000003,501.73463659999993,502.0567868999999,502.0193552999999,502.0193985000001,503.33559379999997,503.33559379999997,,503.45343189999994,space,1,0.11212760000012167,None,006,001,2023-11-11_13h52.17.523,untitled,2023.2.2,59.89498014188146,2023-11-11 13h52.27.623043 +0800,
1,condition_2/rightstar.PNG,space,,,,,,,,,,,,,1,7,32,12,503.50858590000007,,,,,,,,,,,,,,,,,,,,,,,,,,,,,,,,,,,,,,,,,,,,,,,,,,,,,,,,,,,,,,,,,,,,,,,,,,,,,,,,,,,,,,,,,,,,,,,,,,,,,,,,,,503.45446719999995,503.50858590000007,503.96880110000006,503.9688283999999,504.46756920000007,504.89360809999994,504.7519910000001,504.7520187,506.0698620999999,506.0698620999999,,506.60352450000005,right,0,0.5318164000000252,None,006,001,2023-11-11_13h52.17.523,untitled,2023.2.2,59.89498014188146,2023-11-11 13h52.27.623043 +0800,
8,condition_2/rightstar.PNG,right,,,,,,,,,,,,,1,8,33,14,506.66731260000006,,,,,,,,,,,,,,,,,,,,,,,,,,,,,,,,,,,,,,,,,,,,,,,,,,,,,,,,,,,,,,,,,,,,,,,,,,,,,,,,,,,,,,,,,,,,,,,,,,,,,,,,,,506.6054087,506.66731260000006,507.11888780000004,507.1189279,507.61779980000006,508.0303865000001,507.9023032,507.9023408999999,509.22001339999997,509.22001339999997,,509.60302849999994,right,1,0.36592399999994996,None,006,001,2023-11-11_13h52.17.523,untitled,2023.2.2,59.89498014188146,2023-11-11 13h52.27.623043 +0800,
9,condition_2/rightstar.PNG,right,,,,,,,,,,,,,1,9,34,15,509.6555499000001,,,,,,,,,,,,,,,,,,,,,,,,,,,,,,,,,,,,,,,,,,,,,,,,,,,,,,,,,,,,,,,,,,,,,,,,,,,,,,,,,,,,,,,,,,,,,,,,,,,,,,,,,,509.60408069999994,509.6555499000001,510.1189932,510.1190435000001,510.6178351000001,511.04162199999996,510.9018413000001,510.9018679999999,512.2199419000001,512.2199419000001,,512.5525413,right,1,0.32363379999992503,None,006,001,2023-11-11_13h52.17.523,untitled,2023.2.2,59.89498014188146,2023-11-11 13h52.27.623043 +0800,
9,condition_2/leftstar.PNG,left,,,,,,,,,,,,,1,10,35,3,512.6048559999999,,,,,,,,,,,,,,,,,,,,,,,,,,,,,,,,,,,,,,,,,,,,,,,,,,,,,,,,,,,,,,,,,,,,,,,,,,,,,,,,,,,,,,,,,,,,,,,,,,,,,,,,,,512.553152,512.6048559999999,513.0685278000001,513.0685549,513.5677836,513.9664150000001,513.8520814999999,513.8521089000001,515.1701105,515.1701105,,515.5863964,space,0,0.4149467999998251,None,006,001,2023-11-11_13h52.17.523,untitled,2023.2.2,59.89498014188146,2023-11-11 13h52.27.623043 +0800,
8,condition_2/rightstar.PNG,right,,,,,,,,,,,,,1,11,36,6,515.6483049999999,,,,,,,,,,,,,,,,,,,,,,,,,,,,,,,,,,,,,,,,,,,,,,,,,,,,,,,,,,,,,,,,,,,,,,,,,,,,,,,,,,,,,,,,,,,,,,,,,,,,,,,,,,515.5872059999999,515.6483049999999,516.1019302,516.1019584999999,516.6011232999999,517.0208273000001,516.887471,516.8875055000001,518.2034524000001,518.2034524000001,,518.7211688,right,1,0.5014493999999559,None,006,001,2023-11-11_13h52.17.523,untitled,2023.2.2,59.89498014188146,2023-11-11 13h52.27.623043 +0800,
9,condition_2/leftstar.PNG,left,,,,,,,,,,,,,1,12,37,19,518.7725269,,,,,,,,,,,,,,,,,,,,,,,,,,,,,,,,,,,,,,,,,,,,,,,,,,,,,,,,,,,,,,,,,,,,,,,,,,,,,,,,,,,,,,,,,,,,,,,,,,,,,,,,,,518.7223039,518.7725269,519.2356491,519.2356788,519.7345379999999,520.1387202999999,520.0186438000001,520.0186716000001,521.3366205,521.3366205,,521.7539497,left,1,0.4153298999999606,None,006,001,2023-11-11_13h52.17.523,untitled,2023.2.2,59.89498014188146,2023-11-11 13h52.27.623043 +0800,
9,condition_2/rightstar.PNG,right,,,,,,,,,,,,,1,13,38,7,521.8060885,,,,,,,,,,,,,,,,,,,,,,,,,,,,,,,,,,,,,,,,,,,,,,,,,,,,,,,,,,,,,,,,,,,,,,,,,,,,,,,,,,,,,,,,,,,,,,,,,,,,,,,,,,521.7550451,521.8060885,522.2686185,522.2686604999999,522.7678599000001,523.1668952,523.0520372999999,523.0520654,524.3700087,524.3700087,,525.0033607,right,1,0.6272112000001471,None,006,001,2023-11-11_13h52.17.523,untitled,2023.2.2,59.89498014188146,2023-11-11 13h52.27.623043 +0800,
1,condition_2/leftstar.PNG,space,,,,,,,,,,,,,1,14,39,22,525.0995599,,,,,,,,,,,,,,,,,,,,,,,,,,,,,,,,,,,,,,,,,,,,,,,,,,,,,,,,,,,,,,,,,,,,,,,,,,,,,,,,,,,,,,,,,,,,,,,,,,,,,,,,,,525.0044522999999,525.0995599,525.5185428,525.5185827,526.0180108,526.4532845000001,526.3024478,526.3024848,527.6200576000001,527.6200576000001,,528.1876035,left,0,0.5644032999998672,None,006,001,2023-11-11_13h52.17.523,untitled,2023.2.2,59.89498014188146,2023-11-11 13h52.27.623043 +0800,
2,condition_2/rightstar.PNG,space,,,,,,,,,,,,,1,15,40,5,528.2397086999999,,,,,,,,,,,,,,,,,,,,,,,,,,,,,,,,,,,,,,,,,,,,,,,,,,,,,,,,,,,,,,,,,,,,,,,,,,,,,,,,,,,,,,,,,,,,,,,,,,,,,,,,,,528.1886896999999,528.2397086999999,528.7019768,528.7020170000001,529.2009857,529.6160298,529.4858028000001,529.4858405,530.8032911,530.8032911,,531.5536110999999,right,0,0.7473171999999977,None,006,001,2023-11-11_13h52.17.523,untitled,2023.2.2,59.89498014188146,2023-11-11 13h52.27.623043 +0800,
1,condition_2/leftstar.PNG,space,,,,,,,,,,,,,1,16,41,0,531.6028681,,,,,,,,,,,,,,,,,,,,,,,,,,,,,,,,,,,,,,,,,,,,,,,,,,,,,,,,,,,,,,,,,,,,,,,,,,,,,,,,,,,,,,,,,,,,,,,,,,,,,,,,,,531.5546847,531.6028681,532.0683223000001,532.0683487000001,532.5678124000001,532.9671303,532.8521432,532.8521804,534.1697134000001,534.1697134000001,,534.6701349,left,0,0.48604120000004514,None,006,001,2023-11-11_13h52.17.523,untitled,2023.2.2,59.89498014188146,2023-11-11 13h52.27.623043 +0800,
8,condition_2/rightstar.PNG,right,,,,,,,,,,,,,1,17,42,23,534.7255758000001,,,,,,,,,,,,,,,,,,,,,,,,,,,,,,,,,,,,,,,,,,,,,,,,,,,,,,,,,,,,,,,,,,,,,,,,,,,,,,,,,,,,,,,,,,,,,,,,,,,,,,,,,,534.6713046,534.7255758000001,535.1851409000001,535.1851661999999,535.6843286999999,536.0840722,535.9690619,535.9690971,537.286449,537.286449,,537.6707434,right,1,0.3780835999998544,None,006,001,2023-11-11_13h52.17.523,untitled,2023.2.2,59.89498014188146,2023-11-11 13h52.27.623043 +0800,
2,condition_2/blank.PNG,space,,,,,,,,,,,,,1,18,43,9,537.7258836999999,,,,,,,,,,,,,,,,,,,,,,,,,,,,,,,,,,,,,,,,,,,,,,,,,,,,,,,,,,,,,,,,,,,,,,,,,,,,,,,,,,,,,,,,,,,,,,,,,,,,,,,,,,537.6718398999999,537.7258836999999,538.1852931000001,538.1853392999999,538.6846634999999,539.1014104999999,538.9692769000001,538.9693186,540.2856002999999,540.2856002999999,541.0844022000001,545.3027915,right,0,5.0034098999999514,None,006,001,2023-11-11_13h52.17.523,untitled,2023.2.2,59.89498014188146,2023-11-11 13h52.27.623043 +0800,
1,condition_2/rightstar.PNG,space,,,,,,,,,,,,,1,19,44,4,545.3523636,,,,,,,,,,,,,,,,,,,,,,,,,,,,,,,,,,,,,,,,,,,,,,,,,,,,,,,,,,,,,,,,,,,,,,,,,,,,,,,,,,,,,,,,,,,,,,,,,,,,,,,,,,545.3038703,545.3523636,545.8185847,545.8186879,546.3178496999999,546.9466457000001,546.6025486999999,546.6025855,547.9197532000001,547.9197532000001,548.7345795000001,548.8028787000001,right,0,0.8767436999999063,None,006,001,2023-11-11_13h52.17.523,untitled,2023.2.2,59.89498014188146,2023-11-11 13h52.27.623043 +0800,
2,condition_2/leftstar.PNG,space,,,,,,,,,,,,,1,20,45,17,548.8575968,,,,,,,,,,,,,,,,,,,,,,,,,,,,,,,,,,,,,,,,,,,,,,,,,,,,,,,,,,,,,,,,,,,,,,,,,,,,,,,,,,,,,,,,,,,,,,,,,,,,,,,,,,548.8039954999999,548.8575968,549.3188018999999,549.3188286,549.8177996,550.2201138,550.1022915000001,550.1023195,551.4196013000001,551.4196013000001,,551.7867384000001,space,1,0.36103320000006534,None,006,001,2023-11-11_13h52.17.523,untitled,2023.2.2,59.89498014188146,2023-11-11 13h52.27.623043 +0800,
9,condition_2/leftstar.PNG,left,,,,,,,,,,,,,1,21,46,20,551.8594376000001,,,,,,,,,,,,,,,,,,,,,,,,,,,,,,,,,,,,,,,,,,,,,,,,,,,,,,,,,,,,,,,,,,,,,,,,,,,,,,,,,,,,,,,,,,,,,,,,,,,,,,,,,,551.7878134,551.8594376000001,552.3017772999999,552.3018026,552.8010483,553.2381223,553.0852981,553.0853264,554.4031938999999,554.4031938999999,,554.7865587000001,left,1,0.3796901999999136,None,006,001,2023-11-11_13h52.17.523,untitled,2023.2.2,59.89498014188146,2023-11-11 13h52.27.623043 +0800,
2,condition_2/leftstar.PNG,space,,,,,,,,,,,,,1,22,47,1,554.8353611,,,,,,,,,,,,,,,,,,,,,,,,,,,,,,,,,,,,,,,,,,,,,,,,,,,,,,,,,,,,,,,,,,,,,,,,,,,,,,,,,,,,,,,,,,,,,,,,,,,,,,,,,,554.7876417,554.8353611,555.3018184,555.3018463000001,555.8009910000001,556.2019622,556.0852868,556.0853156000001,557.4031990000001,557.4031990000001,,557.7529689,left,0,0.3439539999999397,None,006,001,2023-11-11_13h52.17.523,untitled,2023.2.2,59.89498014188146,2023-11-11 13h52.27.623043 +0800,
2,condition_2/rightstar.PNG,space,,,,,,,,,,,,,1,23,48,13,557.8079716,,,,,,,,,,,,,,,,,,,,,,,,,,,,,,,,,,,,,,,,,,,,,,,,,,,,,,,,,,,,,,,,,,,,,,,,,,,,,,,,,,,,,,,,,,,,,,,,,,,,,,,,,,557.7540550000001,557.8079716,558.2686458000001,558.2686722999999,558.7677453000001,559.1724142,559.0519549,559.0519841,560.3700509,560.3700509,,560.7702790999999,right,0,0.38262539999982437,None,006,001,2023-11-11_13h52.17.523,untitled,2023.2.2,59.89498014188146,2023-11-11 13h52.27.623043 +0800,
8,condition_2/leftstar.PNG,left,,,,,,,,,,,,,1,24,49,18,560.821868,,,,,,,,,,,,,,,,,,,,,,,,,,,,,,,,,,,,,,,,,,,,,,,,,,,,,,,,,,,,,,,,,,,,,,,,,,,,,,,,,,,,,,,,,,,,,,,,,,,,,,,,,,560.7714176,560.821868,561.2852069,561.28523,561.7843043,562.1807667999999,562.0693082,562.0693355999999,563.3864028,563.3864028,,563.9038143,left,1,0.5128573000001779,None,006,001,2023-11-11_13h52.17.523,untitled,2023.2.2,59.89498014188146,2023-11-11 13h52.27.623043 +0800,
