stimuli,star,CorrectAns,trials_3.thisRepN,trials_3.thisTrialN,trials_3.thisN,trials_3.thisIndex,trials.thisRepN,trials.thisTrialN,trials.thisN,trials.thisIndex,trials_4.thisRepN,trials_4.thisTrialN,trials_4.thisN,trials_4.thisIndex,trials_2.thisRepN,trials_2.thisTrialN,trials_2.thisN,trials_2.thisIndex,thisRow.t,notes,routine_21.started,text_9.started,key_resp_8.started,routine_21.stopped,key_resp_8.keys,key_resp_8.rt,key_resp_8.duration,introduction.started,text_6.started,key_resp_5.started,introduction.stopped,key_resp_5.keys,key_resp_5.rt,key_resp_5.duration,routine_14.started,image_6.started,routine_14.stopped,routine_16.started,text_4.started,text_4.stopped,routine_16.stopped,routine_17.started,image_7.started,key_resp_3.started,image_7.stopped,routine_17.stopped,key_resp_3.keys,key_resp_3.rt,key_resp_3.duration,routine_20.started,text_8.started,key_resp_7.started,routine_20.stopped,key_resp_7.keys,key_resp_7.rt,key_resp_7.duration,routine_18.started,text_5.started,key_resp_4.started,routine_18.stopped,key_resp_4.keys,key_resp_4.rt,key_resp_4.duration,trial.started,image_3.started,trial.stopped,routine.started,text_3.started,text_3.stopped,routine.stopped,routine_1.started,image_2.started,key_resp.started,routine_1.stopped,key_resp.keys,key_resp.corr,key_resp.rt,key_resp.duration,image_2.stopped,routine_22.started,text_10.started,key_resp_9.started,routine_22.stopped,key_resp_9.keys,key_resp_9.rt,key_resp_9.duration,routine_19.started,text_7.started,key_resp_6.started,routine_19.stopped,key_resp_6.keys,key_resp_6.rt,key_resp_6.duration,routine_23.started,image_8.started,routine_23.stopped,routine_24.started,text_11.started,text_11.stopped,routine_24.stopped,routine_25.started,image_9.started,key_resp_10.started,image_9.stopped,routine_25.stopped,key_resp_10.keys,key_resp_10.rt,key_resp_10.duration,routine_26.started,text_12.started,key_resp_11.started,text_12.stopped,routine_26.stopped,key_resp_11.keys,key_resp_11.rt,key_resp_11.duration,routine_27.started,text_13.started,key_resp_12.started,text_13.stopped,routine_27.stopped,key_resp_12.keys,key_resp_12.rt,key_resp_12.duration,routine_10.started,image_4.started,routine_10.stopped,routine_11.started,text.started,text.stopped,routine_11.stopped,routine_12.started,image_5.started,key_resp_2.started,routine_12.stopped,key_resp_2.keys,key_resp_2.corr,key_resp_2.rt,key_resp_2.duration,image_5.stopped,participant,session,date,expName,psychopyVersion,frameRate,expStart,
,,,,,,,,,,,,,,,,,,,,,0.005453512933854654,0.01788001069667189,0.01788001069667189,3.9363417294396186,space,3.907898729917406,None,,,,,,,,,,,,,,,,,,,,,,,,,,,,,,,,,,,,,,,,,,,,,,,,,,,,,,,,,,,,,,,,,,,,,,,,,,,,,,,,,,,,,,,,,,,,,,,,,,,,,,,,,,,,,,,,,,007,001,2023-11-09_18h10.13.503,untitled,2023.2.2,59.966090212277884,2023-11-09 18h10.24.739024 +0800,
,,,,,,,,,,,,,,,,,,,,,,,,,,,,3.936370574466764,3.951330026170808,3.951330026170808,23.83600460318553,space,19.870219913284473,None,,,,,,,,,,,,,,,,,,,,,,,,,,,,,,,,,,,,,,,,,,,,,,,,,,,,,,,,,,,,,,,,,,,,,,,,,,,,,,,,,,,,,,,,,,,,,,,,,,,,,,,,,,,007,001,2023-11-09_18h10.13.503,untitled,2023.2.2,59.966090212277884,2023-11-09 18h10.24.739024 +0800,
8,test/rightstar.PNG,space,0,0,0,5,,,,,,,,,,,,,23.989438813988727,,,,,,,,,,,,,,,,23.8567468818826,23.989438813988727,24.351450514252747,24.35146824192566,24.85149648601464,25.36862261990973,25.135553899637443,25.135578237629034,26.467536724827596,26.467536724827596,27.268093493944207,27.286090988032356,right,0.8102123414651032,None,,,,,,,,,,,,,,,,,,,,,,,,,,,,,,,,,,,,,,,,,,,,,,,,,,,,,,,,,,,,,,,,,,,,,,,,,,,,,,,,,,,,,,,,,,,,007,001,2023-11-09_18h10.13.503,untitled,2023.2.2,59.966090212277884,2023-11-09 18h10.24.739024 +0800,
1,test/leftstar.PNG,left,0,1,1,0,,,,,,,,,,,,,27.398185767983932,,,,,,,,,,,,,,,,27.287986947625313,27.398185767983932,27.801371340662854,27.801384260831128,28.301430232593248,28.811968582958116,28.585155327466282,28.585169149041803,29.904261852752143,29.904261852752143,,30.33545744907815,left,0.4213768692929989,None,,,,,,,,,,,,,,,,,,,,,,,,,,,,,,,,,,,,,,,,,,,,,,,,,,,,,,,,,,,,,,,,,,,,,,,,,,,,,,,,,,,,,,,,,,,,007,001,2023-11-09_18h10.13.503,untitled,2023.2.2,59.966090212277884,2023-11-09 18h10.24.739024 +0800,
1,test/blank.PNG,space,0,2,2,2,,,,,,,,,,,,,30.437091399674955,,,,,,,,,,,,,,,,30.33593459390113,30.437091399674955,30.851153049910863,30.851164167265097,31.33496257658203,31.718482751575266,31.619211989916266,31.61923963306731,32.95142257063276,32.95142257063276,33.751399434517225,34.00277242775974,space,1.0383677921233812,None,,,,,,,,,,,,,,,,,,,,,,,,,,,,,,,,,,,,,,,,,,,,,,,,,,,,,,,,,,,,,,,,,,,,,,,,,,,,,,,,,,,,,,,,,,,,007,001,2023-11-09_18h10.13.503,untitled,2023.2.2,59.966090212277884,2023-11-09 18h10.24.739024 +0800,
2,test/leftstar.PNG,left,0,3,3,4,,,,,,,,,,,,,34.11665379657643,,,,,,,,,,,,,,,,34.00361884902327,34.11665379657643,34.51803054568177,34.51804376631935,35.018302169686876,35.53246297470355,35.302576221481786,35.30260566744687,36.62282362768292,36.62282362768292,,37.18541222848876,left,0.5598026519396626,None,,,,,,,,,,,,,,,,,,,,,,,,,,,,,,,,,,,,,,,,,,,,,,,,,,,,,,,,,,,,,,,,,,,,,,,,,,,,,,,,,,,,,,,,,,,,007,001,2023-11-09_18h10.13.503,untitled,2023.2.2,59.966090212277884,2023-11-09 18h10.24.739024 +0800,
9,test/rightstar.PNG,space,0,4,4,3,,,,,,,,,,,,,37.286834949356034,,,,,,,,,,,,,,,,37.18590019019689,37.286834949356034,37.70154320894926,37.70155973474607,38.184787553370825,38.683022898745094,38.468340179019606,38.46835309918788,39.789664165762815,39.789664165762815,,39.85328007018961,space,0.0492309495120935,None,,,,,,,,,,,,,,,,,,,,,,,,,,,,,,,,,,,,,,,,,,,,,,,,,,,,,,,,,,,,,,,,,,,,,,,,,,,,,,,,,,,,,,,,,,,,007,001,2023-11-09_18h10.13.503,untitled,2023.2.2,59.966090212277884,2023-11-09 18h10.24.739024 +0800,
8,test/rightstar.PNG,space,0,5,5,1,,,,,,,,,,,,,39.9600340130944,,,,,,,,,,,,,,,,39.85428964613766,39.9600340130944,40.368049625465346,40.36806404797903,40.868241625177006,41.374696300925734,41.15220559293061,41.15222782763908,42.47260713974515,42.47260713974515,43.28547863214476,43.82057161228681,space,1.3411861916451926,None,,,,,,,,,,,,,,,,,,,,,,,,,,,,,,,,,,,,,,,,,,,,,,,,,,,,,,,,,,,,,,,,,,,,,,,,,,,,,,,,,,,,,,,,,,,,007,001,2023-11-09_18h10.13.503,untitled,2023.2.2,59.966090212277884,2023-11-09 18h10.24.739024 +0800,
,,,,,,,,,,,,,,,,,,,,,,,,,,,,,,,,,,,,,,,,,,,,,,,,,,43.82149435268457,43.834812342066016,43.834812342066016,46.05256315107886,space,2.2101498439064926,None,,,,,,,,,,,,,,,,,,,,,,,,,,,,,,,,,,,,,,,,,,,,,,,,,,,,,,,,,,,,,,,,,,,,,,,,,,,,,,,,,,,,,007,001,2023-11-09_18h10.13.503,untitled,2023.2.2,59.966090212277884,2023-11-09 18h10.24.739024 +0800,
,,,,,,,,,,,,,,,,,,,,,,,,,,,,,,,,,,,,,,,,,,,,,,,,,,,,,,,,,46.05260611815038,46.06778371037194,46.06778371037194,47.835889223077174,space,1.7531250281690518,None,,,,,,,,,,,,,,,,,,,,,,,,,,,,,,,,,,,,,,,,,,,,,,,,,,,,,,,,,,,,,,,,,,,,,,,,,,,,,,007,001,2023-11-09_18h10.13.503,untitled,2023.2.2,59.966090212277884,2023-11-09 18h10.24.739024 +0800,
1,condition_1/rightstar.PNG,right,,,,,0,0,0,4,,,,,,,,,47.95835949917819,,,,,,,,,,,,,,,,,,,,,,,,,,,,,,,,,,,,,,,,,,,,,47.85488637763547,47.95835949917819,48.351955903164935,48.351991658979614,48.83508636982333,49.35582534336095,49.119687932863144,49.11972759477544,50.46645413490455,50.46645413490455,50.918678657384135,right,1,0.4433309395967626,None,,,,,,,,,,,,,,,,,,,,,,,,,,,,,,,,,,,,,,,,,,,,,,,,,,,,,,,,,,,,,,,007,001,2023-11-09_18h10.13.503,untitled,2023.2.2,59.966090212277884,2023-11-09 18h10.24.739024 +0800,
9,condition_1/leftstar.PNG,space,,,,,0,1,1,24,,,,,,,,,51.02034656098181,,,,,,,,,,,,,,,,,,,,,,,,,,,,,,,,,,,,,,,,,,,,,50.91951005519627,51.02034656098181,51.435277768596734,51.43531532722591,51.91861405654231,52.42938557087609,52.202194024872824,52.202217461457394,53.538597350464215,53.538597350464215,53.78557688551837,space,1,0.23468464272718847,None,,,,,,,,,,,,,,,,,,,,,,,,,,,,,,,,,,,,,,,,,,,,,,,,,,,,,,,,,,,,,,,007,001,2023-11-09_18h10.13.503,untitled,2023.2.2,59.966090212277884,2023-11-09 18h10.24.739024 +0800,
8,condition_1/rightstar.PNG,space,,,,,0,2,2,23,,,,,,,,,53.894593059766294,,,,,,,,,,,,,,,,,,,,,,,,,,,,,,,,,,,,,,,,,,,,,53.78608167349239,53.894593059766294,54.30144705885891,54.3014626832487,54.80097712529255,55.309822032192415,55.08582777716015,55.08584099779773,56.389793968384765,56.389793968384765,56.53686845165316,space,1,0.13535979664243314,None,,,,,,,,,,,,,,,,,,,,,,,,,,,,,,,,,,,,,,,,,,,,,,,,,,,,,,,,,,,,,,,007,001,2023-11-09_18h10.13.503,untitled,2023.2.2,59.966090212277884,2023-11-09 18h10.24.739024 +0800,
2,condition_1/rightstar.PNG,left,,,,,0,3,3,5,,,,,,,,,56.6502146851235,,,,,,,,,,,,,,,,,,,,,,,,,,,,,,,,,,,,,,,,,,,,,56.53830048706027,56.6502146851235,57.05135646744566,57.051370889959344,57.551516016501864,58.0611454480445,57.83571675385292,57.83574289465855,59.153946810972,59.153946810972,59.785449186179676,right,0,0.6200671247818264,None,,,,,,,,,,,,,,,,,,,,,,,,,,,,,,,,,,,,,,,,,,,,,,,,,,,,,,,,,,,,,,,007,001,2023-11-09_18h10.13.503,untitled,2023.2.2,59.966090212277884,2023-11-09 18h10.24.739024 +0800,
8,condition_1/leftstar.PNG,space,,,,,0,4,4,18,,,,,,,,,59.88387022141569,,,,,,,,,,,,,,,,,,,,,,,,,,,,,,,,,,,,,,,,,,,,,59.78597801167621,59.88387022141569,60.30128540651958,60.301299528564186,60.80138486176929,61.3110476453744,61.0855426320486,61.085567570978355,62.405448404960225,62.405448404960225,65.60283432438041,space,1,3.193167334208738,None,63.217865287714176,,,,,,,,,,,,,,,,,,,,,,,,,,,,,,,,,,,,,,,,,,,,,,,,,,,,,,,,,,,,,,007,001,2023-11-09_18h10.13.503,untitled,2023.2.2,59.966090212277884,2023-11-09 18h10.24.739024 +0800,
2,condition_1/rightstar.PNG,right,,,,,0,5,5,13,,,,,,,,,65.71470014692932,,,,,,,,,,,,,,,,,,,,,,,,,,,,,,,,,,,,,,,,,,,,,65.60380874545172,65.71470014692932,66.11839501461782,66.11840493009595,66.61839831977727,67.12680874845637,66.90222647552832,66.90225381821028,68.22269202224675,68.22269202224675,68.68671806690259,right,1,0.46245278880337537,None,,,,,,,,,,,,,,,,,,,,,,,,,,,,,,,,,,,,,,,,,,,,,,,,,,,,,,,,,,,,,,,007,001,2023-11-09_18h10.13.503,untitled,2023.2.2,59.966090212277884,2023-11-09 18h10.24.739024 +0800,
1,condition_1/leftstar.PNG,left,,,,,0,6,6,0,,,,,,,,,68.79832518561489,,,,,,,,,,,,,,,,,,,,,,,,,,,,,,,,,,,,,,,,,,,,,68.68790011207511,68.79832518561489,69.20116281515448,69.20117303110169,69.7014125049202,70.20827822230513,69.98552670719005,69.98555074471255,71.30517137251263,71.30517137251263,71.78600926045556,left,1,0.46868842262779253,None,,,,,,,,,,,,,,,,,,,,,,,,,,,,,,,,,,,,,,,,,,,,,,,,,,,,,,,,,,,,,,,007,001,2023-11-09_18h10.13.503,untitled,2023.2.2,59.966090212277884,2023-11-09 18h10.24.739024 +0800,
2,condition_1/leftstar.PNG,left,,,,,0,7,7,22,,,,,,,,,71.89394975556843,,,,,,,,,,,,,,,,,,,,,,,,,,,,,,,,,,,,,,,,,,,,,71.7869347050746,71.89394975556843,72.30138245801709,72.30139658006146,72.8013872655215,73.30788100224459,73.08531247277006,73.08533320513334,74.40440547694948,74.40440547694948,74.86875152112452,left,1,0.4574226367360552,None,,,,,,,,,,,,,,,,,,,,,,,,,,,,,,,,,,,,,,,,,,,,,,,,,,,,,,,,,,,,,,,007,001,2023-11-09_18h10.13.503,untitled,2023.2.2,59.966090212277884,2023-11-09 18h10.24.739024 +0800,
8,condition_1/rightstar.PNG,space,,,,,0,8,8,14,,,,,,,,,74.96766111900683,,,,,,,,,,,,,,,,,,,,,,,,,,,,,,,,,,,,,,,,,,,,,74.86928845928492,74.96766111900683,75.38469320609488,75.38470853001536,75.88470462391797,76.39958655461191,76.16910036567083,76.16912830929095,77.48859840210571,77.48859840210571,78.13544152421946,space,1,0.6372407327839937,None,,,,,,,,,,,,,,,,,,,,,,,,,,,,,,,,,,,,,,,,,,,,,,,,,,,,,,,,,,,,,,,007,001,2023-11-09_18h10.13.503,untitled,2023.2.2,59.966090212277884,2023-11-09 18h10.24.739024 +0800,
1,condition_1/rightstar.PNG,right,,,,,0,9,9,12,,,,,,,,,78.23857301247244,,,,,,,,,,,,,,,,,,,,,,,,,,,,,,,,,,,,,,,,,,,,,78.13599588958368,78.23857301247244,78.6514634344212,78.65148116209411,79.13489136542148,79.64972401919408,79.41957525697626,79.41961461841947,80.74033436193895,80.74033436193895,81.3188129670416,right,1,0.576976860879995,None,,,,,,,,,,,,,,,,,,,,,,,,,,,,,,,,,,,,,,,,,,,,,,,,,,,,,,,,,,,,,,,007,001,2023-11-09_18h10.13.503,untitled,2023.2.2,59.966090212277884,2023-11-09 18h10.24.739024 +0800,
9,condition_1/leftstar.PNG,space,,,,,0,10,10,19,,,,,,,,,81.41713394608996,,,,,,,,,,,,,,,,,,,,,,,,,,,,,,,,,,,,,,,,,,,,,81.31935411176846,81.41713394608996,81.8346095254692,81.8346212437616,82.31844038544182,82.83054267711896,82.60301791095912,82.60305787334028,83.92274490479645,83.92274490479645,84.3367834189171,space,1,0.4109776360901378,None,,,,,,,,,,,,,,,,,,,,,,,,,,,,,,,,,,,,,,,,,,,,,,,,,,,,,,,,,,,,,,,007,001,2023-11-09_18h10.13.503,untitled,2023.2.2,59.966090212277884,2023-11-09 18h10.24.739024 +0800,
8,condition_1/leftstar.PNG,space,,,,,0,11,11,2,,,,,,,,,84.44943947502065,,,,,,,,,,,,,,,,,,,,,,,,,,,,,,,,,,,,,,,,,,,,,84.33800512600169,84.44943947502065,84.85123868358505,84.85126272110779,85.3513744955876,85.8574397634709,85.63552595601732,85.63554939260189,86.95694579238193,86.95694579238193,87.36852737122649,space,1,0.40014212185224096,None,,,,,,,,,,,,,,,,,,,,,,,,,,,,,,,,,,,,,,,,,,,,,,,,,,,,,,,,,,,,,,,007,001,2023-11-09_18h10.13.503,untitled,2023.2.2,59.966090212277884,2023-11-09 18h10.24.739024 +0800,
8,condition_1/rightstar.PNG,space,,,,,0,12,12,6,,,,,,,,,87.46622968453767,,,,,,,,,,,,,,,,,,,,,,,,,,,,,,,,,,,,,,,,,,,,,87.36901473199669,87.46622968453767,87.88476682100759,87.88478394774256,88.38478124352127,88.8925318422057,88.66877435677088,88.66879809382453,89.97172346032153,89.97172346032153,90.2852295433172,space,1,0.30632006562245806,None,,,,,,,,,,,,,,,,,,,,,,,,,,,,,,,,,,,,,,,,,,,,,,,,,,,,,,,,,,,,,,,007,001,2023-11-09_18h10.13.503,untitled,2023.2.2,59.966090212277884,2023-11-09 18h10.24.739024 +0800,
9,condition_1/leftstar.PNG,space,,,,,0,13,13,3,,,,,,,,,90.3834441563281,,,,,,,,,,,,,,,,,,,,,,,,,,,,,,,,,,,,,,,,,,,,,90.2856784440512,90.3834441563281,90.80144615745189,90.80146328418664,91.30118985736749,91.8093692253608,91.58550477295057,91.58552610625202,92.88915096465598,92.88915096465598,93.18633376701041,space,1,0.284068831445893,None,,,,,,,,,,,,,,,,,,,,,,,,,,,,,,,,,,,,,,,,,,,,,,,,,,,,,,,,,,,,,,,007,001,2023-11-09_18h10.13.503,untitled,2023.2.2,59.966090212277884,2023-11-09 18h10.24.739024 +0800,
2,condition_1/blank.PNG,space,,,,,0,14,14,20,,,,,,,,,93.2990493159823,,,,,,,,,,,,,,,,,,,,,,,,,,,,,,,,,,,,,,,,,,,,,93.18742146490672,93.2990493159823,93.70136142518481,93.70137524676034,94.20140919976097,94.58486868000955,94.48547172135704,94.48549515794161,95.8017661569711,95.8017661569711,96.21857499556813,space,1,0.41167232049247104,None,,,,,,,,,,,,,,,,,,,,,,,,,,,,,,,,,,,,,,,,,,,,,,,,,,,,,,,,,,,,,,,007,001,2023-11-09_18h10.13.503,untitled,2023.2.2,59.966090212277884,2023-11-09 18h10.24.739024 +0800,
2,condition_1/leftstar.PNG,left,,,,,0,15,15,17,,,,,,,,,96.31997668360327,,,,,,,,,,,,,,,,,,,,,,,,,,,,,,,,,,,,,,,,,,,,,96.21905935164796,96.31997668360327,96.7347294126132,96.73474413559575,97.21845901452161,97.73174906028316,97.50300859641902,97.50304885926948,98.82204511242048,98.82204511242048,99.38527761836235,left,1,0.5603462004189623,None,,,,,,,,,,,,,,,,,,,,,,,,,,,,,,,,,,,,,,,,,,,,,,,,,,,,,,,,,,,,,,,007,001,2023-11-09_18h10.13.503,untitled,2023.2.2,59.966090212277884,2023-11-09 18h10.24.739024 +0800,
8,condition_1/blank.PNG,space,,,,,0,16,16,10,,,,,,,,,99.48446665244455,,,,,,,,,,,,,,,,,,,,,,,,,,,,,,,,,,,,,,,,,,,,,99.38574484770743,99.48446665244455,99.90197227872704,99.90200382797548,100.38506999426113,100.75922454952183,100.66863223491873,100.66864365274205,101.98474068020187,101.98474068020187,102.21938235585753,space,1,0.22080087015820027,None,,,,,,,,,,,,,,,,,,,,,,,,,,,,,,,,,,,,,,,,,,,,,,,,,,,,,,,,,,,,,,,007,001,2023-11-09_18h10.13.503,untitled,2023.2.2,59.966090212277884,2023-11-09 18h10.24.739024 +0800,
2,condition_1/blank.PNG,space,,,,,0,17,17,9,,,,,,,,,102.33216130379537,,,,,,,,,,,,,,,,,,,,,,,,,,,,,,,,,,,,,,,,,,,,,102.22034776285795,102.33216130379537,102.73474052996744,102.73475435154273,103.23488565650996,103.59721495254098,103.5190954079319,103.51912395248996,104.83493944046654,104.83493944046654,105.2866032877323,space,1,0.44315816990319945,None,,,,,,,,,,,,,,,,,,,,,,,,,,,,,,,,,,,,,,,,,,,,,,,,,,,,,,,,,,,,,,,007,001,2023-11-09_18h10.13.503,untitled,2023.2.2,59.966090212277884,2023-11-09 18h10.24.739024 +0800,
9,condition_1/rightstar.PNG,space,,,,,0,18,18,7,,,,,,,,,105.4022255741213,,,,,,,,,,,,,,,,,,,,,,,,,,,,,,,,,,,,,,,,,,,,,105.28779164275443,105.4022255741213,105.8011345710654,105.80114839264093,106.30173400678473,106.8245819724591,106.58613966401549,106.58617632123742,107.91106627445447,107.91106627445447,108.36877345536391,space,1,0.45490861234384283,None,,,,,,,,,,,,,,,,,,,,,,,,,,,,,,,,,,,,,,,,,,,,,,,,,,,,,,,,,,,,,,,007,001,2023-11-09_18h10.13.503,untitled,2023.2.2,59.966090212277884,2023-11-09 18h10.24.739024 +0800,
9,condition_1/rightstar.PNG,space,,,,,0,19,19,15,,,,,,,,,108.46848139946451,,,,,,,,,,,,,,,,,,,,,,,,,,,,,,,,,,,,,,,,,,,,,108.36934074089663,108.46848139946451,108.884658351687,108.8846712718555,109.38493207897523,109.89721735629314,109.66919891951352,109.6692283654786,110.97315669760496,110.97315669760496,111.13531172159742,space,1,0.16048471664271347,None,,,,,,,,,,,,,,,,,,,,,,,,,,,,,,,,,,,,,,,,,,,,,,,,,,,,,,,,,,,,,,,007,001,2023-11-09_18h10.13.503,untitled,2023.2.2,59.966090212277884,2023-11-09 18h10.24.739024 +0800,
9,condition_1/blank.PNG,space,,,,,0,20,20,11,,,,,,,,,111.23409061545067,,,,,,,,,,,,,,,,,,,,,,,,,,,,,,,,,,,,,,,,,,,,,111.13580088518188,111.23409061545067,111.65190933046483,111.65194238205845,112.13502747789312,112.5270990015415,112.41974982948386,112.419788890458,113.73462905595647,113.73462905595647,116.00237040019465,space,1,2.263107811293594,None,114.53467562865649,,,,,,,,,,,,,,,,,,,,,,,,,,,,,,,,,,,,,,,,,,,,,,,,,,,,,,,,,,,,,,007,001,2023-11-09_18h10.13.503,untitled,2023.2.2,59.966090212277884,2023-11-09 18h10.24.739024 +0800,
2,condition_1/leftstar.PNG,left,,,,,0,21,21,1,,,,,,,,,116.10825658853469,,,,,,,,,,,,,,,,,,,,,,,,,,,,,,,,,,,,,,,,,,,,,116.00302211752546,116.10825658853469,116.51794821716703,116.5179587335831,117.01799779455746,117.54832142975192,117.30166459843826,117.3016769176686,118.62381637736507,118.62381637736507,119.0021669826599,left,1,0.3657934035029484,None,,,,,,,,,,,,,,,,,,,,,,,,,,,,,,,,,,,,,,,,,,,,,,,,,,,,,,,,,,,,,,,007,001,2023-11-09_18h10.13.503,untitled,2023.2.2,59.966090212277884,2023-11-09 18h10.24.739024 +0800,
1,condition_1/rightstar.PNG,right,,,,,0,22,22,21,,,,,,,,,119.10144044854019,,,,,,,,,,,,,,,,,,,,,,,,,,,,,,,,,,,,,,,,,,,,,119.00273547006873,119.10144044854019,119.51818318395021,119.5182039163135,120.01809244230253,120.52744994937098,120.30217058828839,120.30219612815608,121.62276984372602,121.62276984372602,122.00202666362202,right,1,0.374574911436639,None,,,,,,,,,,,,,,,,,,,,,,,,,,,,,,,,,,,,,,,,,,,,,,,,,,,,,,,,,,,,,,,007,001,2023-11-09_18h10.13.503,untitled,2023.2.2,59.966090212277884,2023-11-09 18h10.24.739024 +0800,
1,condition_1/blank.PNG,space,,,,,0,23,23,8,,,,,,,,,122.1024605409043,,,,,,,,,,,,,,,,,,,,,,,,,,,,,,,,,,,,,,,,,,,,,122.00255939521594,122.1024605409043,122.51835865786506,122.51837127756426,123.00133348156487,123.36737957952369,123.28556066019064,123.28558499818223,124.6015347958164,124.6015347958164,125.98654529720898,space,1,1.3810983945938915,None,125.40158016664009,,,,,,,,,,,,,,,,,,,,,,,,,,,,,,,,,,,,,,,,,,,,,,,,,,,,,,,,,,,,,,007,001,2023-11-09_18h10.13.503,untitled,2023.2.2,59.966090212277884,2023-11-09 18h10.24.739024 +0800,
1,condition_1/leftstar.PNG,left,,,,,0,24,24,16,,,,,,,,,126.10140889929176,,,,,,,,,,,,,,,,,,,,,,,,,,,,,,,,,,,,,,,,,,,,,125.98771532362025,126.10140889929176,126.50129141590037,126.50130673982085,127.00151105876284,127.51113658420809,127.28550477295062,127.28552820953519,128.60631736140112,128.60631736140112,128.95367398509075,left,1,0.3430767427955743,None,,,,,,,,,,,,,,,,,,,,,,,,,,,,,,,,,,,,,,,,,,,,,,,,,,,,,,,,,,,,,,,007,001,2023-11-09_18h10.13.503,untitled,2023.2.2,59.966090212277884,2023-11-09 18h10.24.739024 +0800,
2,condition_1/blank.PNG,space,,,,,1,0,25,20,,,,,,,,,129.06862051662642,,,,,,,,,,,,,,,,,,,,,,,,,,,,,,,,,,,,,,,,,,,,,128.95509219892256,129.06862051662642,129.46814727790093,129.46816500557384,129.96793604817117,130.33206184854566,130.2521091423714,130.25213047567263,131.56806645173128,131.56806645173128,131.68615168277688,space,1,0.1089101086795381,None,,,,,,,,,,,,,,,,,,,,,,,,,,,,,,,,,,,,,,,,,,,,,,,,,,,,,,,,,,,,,,,007,001,2023-11-09_18h10.13.503,untitled,2023.2.2,59.966090212277884,2023-11-09 18h10.24.739024 +0800,
1,condition_1/rightstar.PNG,right,,,,,1,1,26,4,,,,,,,,,131.8024061560095,,,,,,,,,,,,,,,,,,,,,,,,,,,,,,,,,,,,,,,,,,,,,131.68713782214036,131.8024061560095,132.20178418511296,132.20181002544973,132.70154831692275,133.21415539657414,132.98589117612596,132.9859227253744,134.30572934350516,134.30572934350516,134.7851490176165,right,1,0.4676451941479627,None,,,,,,,,,,,,,,,,,,,,,,,,,,,,,,,,,,,,,,,,,,,,,,,,,,,,,,,,,,,,,,,007,001,2023-11-09_18h10.13.503,untitled,2023.2.2,59.966090212277884,2023-11-09 18h10.24.739024 +0800,
9,condition_1/blank.PNG,space,,,,,1,2,27,11,,,,,,,,,134.88430199541494,,,,,,,,,,,,,,,,,,,,,,,,,,,,,,,,,,,,,,,,,,,,,134.78558860381054,134.88430199541494,135.3013491059544,135.301363227999,135.7848302199734,136.15576885518294,136.06882002806378,136.06884406558652,137.3847298633168,137.3847298633168,138.43577925141153,space,1,1.0448407964831858,None,138.184572718013,,,,,,,,,,,,,,,,,,,,,,,,,,,,,,,,,,,,,,,,,,,,,,,,,,,,,,,,,,,,,,007,001,2023-11-09_18h10.13.503,untitled,2023.2.2,59.966090212277884,2023-11-09 18h10.24.739024 +0800,
8,condition_1/blank.PNG,space,,,,,1,3,28,10,,,,,,,,,138.53884313413255,,,,,,,,,,,,,,,,,,,,,,,,,,,,,,,,,,,,,,,,,,,,,138.43655295916938,138.53884313413255,138.95196371535962,138.95199556507714,139.45178764050684,139.80928419262477,139.73544122375029,139.73546345845875,141.05148206350123,141.05148206350123,141.23644418937965,space,1,0.1773656678074076,None,,,,,,,,,,,,,,,,,,,,,,,,,,,,,,,,,,,,,,,,,,,,,,,,,,,,,,,,,,,,,,,007,001,2023-11-09_18h10.13.503,untitled,2023.2.2,59.966090212277884,2023-11-09 18h10.24.739024 +0800,
9,condition_1/rightstar.PNG,space,,,,,1,4,29,15,,,,,,,,,141.34518813868453,,,,,,,,,,,,,,,,,,,,,,,,,,,,,,,,,,,,,,,,,,,,,141.23761030969354,141.34518813868453,141.75128285253277,141.7512966741083,142.25125821407232,142.76962828976048,142.535634425338,142.53566296989607,143.86119682824892,143.86119682824892,144.15198745241332,space,1,0.28805425268842555,None,,,,,,,,,,,,,,,,,,,,,,,,,,,,,,,,,,,,,,,,,,,,,,,,,,,,,,,,,,,,,,,007,001,2023-11-09_18h10.13.503,untitled,2023.2.2,59.966090212277884,2023-11-09 18h10.24.739024 +0800,
2,condition_1/blank.PNG,space,,,,,1,5,30,9,,,,,,,,,144.25091567937557,,,,,,,,,,,,,,,,,,,,,,,,,,,,,,,,,,,,,,,,,,,,,144.15258057828282,144.25091567937557,144.66806585079325,144.66808117471373,145.15181468271976,145.51238232881542,145.43536971212075,145.43540035996193,146.75175248563005,146.75175248563005,147.51860414106432,space,1,0.7653252727509425,None,,,,,,,,,,,,,,,,,,,,,,,,,,,,,,,,,,,,,,,,,,,,,,,,,,,,,,,,,,,,,,,007,001,2023-11-09_18h10.13.503,untitled,2023.2.2,59.966090212277884,2023-11-09 18h10.24.739024 +0800,
2,condition_1/leftstar.PNG,left,,,,,1,6,31,22,,,,,,,,,147.61695967405126,,,,,,,,,,,,,,,,,,,,,,,,,,,,,,,,,,,,,,,,,,,,,147.51910952997628,147.61695967405126,148.03522939308255,148.0352606418619,148.51841093947655,149.02700014722996,148.8024076583547,148.80243409962964,150.1218594225586,150.1218594225586,150.60278955449462,left,1,0.4678462079307337,None,,,,,,,,,,,,,,,,,,,,,,,,,,,,,,,,,,,,,,,,,,,,,,,,,,,,,,,,,,,,,,,007,001,2023-11-09_18h10.13.503,untitled,2023.2.2,59.966090212277884,2023-11-09 18h10.24.739024 +0800,
8,condition_1/leftstar.PNG,space,,,,,1,7,32,18,,,,,,,,,150.70631946468438,,,,,,,,,,,,,,,,,,,,,,,,,,,,,,,,,,,,,,,,,,,,,150.6037693840085,150.70631946468438,151.11802754099153,151.11804406678834,151.61806509962048,152.11965848689806,151.90200863548012,151.9020404851974,153.222104905758,153.222104905758,153.56930768930306,space,1,0.3349848112904965,None,,,,,,,,,,,,,,,,,,,,,,,,,,,,,,,,,,,,,,,,,,,,,,,,,,,,,,,,,,,,,,,007,001,2023-11-09_18h10.13.503,untitled,2023.2.2,59.966090212277884,2023-11-09 18h10.24.739024 +0800,
9,condition_1/leftstar.PNG,space,,,,,1,8,33,3,,,,,,,,,153.6782283143989,,,,,,,,,,,,,,,,,,,,,,,,,,,,,,,,,,,,,,,,,,,,,153.57028090849826,153.6782283143989,154.08451412655154,154.08453636126,154.5847325675379,155.0918768197157,154.8688614927903,154.868887032658,156.18842863710256,156.18842863710256,156.68522894237913,space,1,0.4807384326934425,None,,,,,,,,,,,,,,,,,,,,,,,,,,,,,,,,,,,,,,,,,,,,,,,,,,,,,,,,,,,,,,,007,001,2023-11-09_18h10.13.503,untitled,2023.2.2,59.966090212277884,2023-11-09 18h10.24.739024 +0800,
1,condition_1/rightstar.PNG,right,,,,,1,9,34,12,,,,,,,,,156.78790221535814,,,,,,,,,,,,,,,,,,,,,,,,,,,,,,,,,,,,,,,,,,,,,156.68569587125512,156.78790221535814,157.20129261777652,157.20130463653777,157.68486176922192,158.19889126927137,157.96890836595935,157.96893510770315,159.28875825163095,159.28875825163095,159.68608197396134,right,1,0.3880275109447666,None,,,,,,,,,,,,,,,,,,,,,,,,,,,,,,,,,,,,,,,,,,,,,,,,,,,,,,,,,,,,,,,007,001,2023-11-09_18h10.13.503,untitled,2023.2.2,59.966090212277884,2023-11-09 18h10.24.739024 +0800,
8,condition_1/rightstar.PNG,space,,,,,1,10,35,23,,,,,,,,,159.793702469555,,,,,,,,,,,,,,,,,,,,,,,,,,,,,,,,,,,,,,,,,,,,,159.687077427865,159.793702469555,160.20117573532298,160.20118985736735,160.70142482415054,161.20932896251043,160.98547322370223,160.98549635981772,162.3053504520558,162.3053504520558,163.05262204300925,space,1,0.7316586191045644,None,,,,,,,,,,,,,,,,,,,,,,,,,,,,,,,,,,,,,,,,,,,,,,,,,,,,,,,,,,,,,,,007,001,2023-11-09_18h10.13.503,untitled,2023.2.2,59.966090212277884,2023-11-09 18h10.24.739024 +0800,
9,condition_1/leftstar.PNG,space,,,,,1,11,36,19,,,,,,,,,163.16368050526876,,,,,,,,,,,,,,,,,,,,,,,,,,,,,,,,,,,,,,,,,,,,,163.05359105563798,163.16368050526876,163.56837563436534,163.5684017751712,164.06837112732978,164.5744526205408,164.352170738523,164.35219387463826,165.67189983564344,165.67189983564344,166.16938220562292,space,1,0.4939864127902638,None,,,,,,,,,,,,,,,,,,,,,,,,,,,,,,,,,,,,,,,,,,,,,,,,,,,,,,,,,,,,,,,007,001,2023-11-09_18h10.13.503,untitled,2023.2.2,59.966090212277884,2023-11-09 18h10.24.739024 +0800,
1,condition_1/blank.PNG,space,,,,,1,12,37,8,,,,,,,,,166.2775014798101,,,,,,,,,,,,,,,,,,,,,,,,,,,,,,,,,,,,,,,,,,,,,166.17041131205815,166.2775014798101,166.6847740322644,166.68479356275157,167.18468749718318,167.5605354959091,167.4685874650329,167.46860609411306,168.78437470892072,168.78437470892072,169.55383593789907,space,1,0.7568938112392516,None,,,,,,,,,,,,,,,,,,,,,,,,,,,,,,,,,,,,,,,,,,,,,,,,,,,,,,,,,,,,,,,007,001,2023-11-09_18h10.13.503,untitled,2023.2.2,59.966090212277884,2023-11-09 18h10.24.739024 +0800,
8,condition_1/rightstar.PNG,space,,,,,1,13,38,14,,,,,,,,,169.66765751337834,,,,,,,,,,,,,,,,,,,,,,,,,,,,,,,,,,,,,,,,,,,,,169.55547109037207,169.66765751337834,170.06827948427508,170.06829931523112,170.56799824526092,171.07572991439633,170.85217254133704,170.8521962783907,172.17263928993157,172.17263928993157,172.70331567577,right,0,0.5289126326194946,None,,,,,,,,,,,,,,,,,,,,,,,,,,,,,,,,,,,,,,,,,,,,,,,,,,,,,,,,,,,,,,,007,001,2023-11-09_18h10.13.503,untitled,2023.2.2,59.966090212277884,2023-11-09 18h10.24.739024 +0800,
2,condition_1/leftstar.PNG,left,,,,,1,14,39,17,,,,,,,,,172.81529357326804,,,,,,,,,,,,,,,,,,,,,,,,,,,,,,,,,,,,,,,,,,,,,172.70449621859734,172.81529357326804,173.21808643292184,173.21810205731163,173.718050977576,174.2107976551397,174.0019542505852,174.00196536793942,175.32262141202432,175.32262141202432,175.65318091540894,left,1,0.314233518522542,None,,,,,,,,,,,,,,,,,,,,,,,,,,,,,,,,,,,,,,,,,,,,,,,,,,,,,,,,,,,,,,,007,001,2023-11-09_18h10.13.503,untitled,2023.2.2,59.966090212277884,2023-11-09 18h10.24.739024 +0800,
8,condition_1/rightstar.PNG,space,,,,,1,15,40,6,,,,,,,,,175.76681469774326,,,,,,,,,,,,,,,,,,,,,,,,,,,,,,,,,,,,,,,,,,,,,175.65436145823628,175.76681469774326,176.1680036537034,176.16803129685445,176.66819174731768,177.1737576356693,176.95249554554675,176.95252409010482,178.27263568430317,178.27263568430317,178.5687524225316,space,1,0.2846168869605208,None,,,,,,,,,,,,,,,,,,,,,,,,,,,,,,,,,,,,,,,,,,,,,,,,,,,,,,,,,,,,,,,007,001,2023-11-09_18h10.13.503,untitled,2023.2.2,59.966090212277884,2023-11-09 18h10.24.739024 +0800,
1,condition_1/leftstar.PNG,left,,,,,1,16,41,0,,,,,,,,,178.66655659484468,,,,,,,,,,,,,,,,,,,,,,,,,,,,,,,,,,,,,,,,,,,,,178.56930107898438,178.66655659484468,179.08478034211407,179.0847926613444,179.58484914952237,180.0804472782013,179.86819745622915,179.8682085735834,181.1890148521843,181.1890148521843,181.73534357131484,left,1,0.5357708382784949,None,,,,,,,,,,,,,,,,,,,,,,,,,,,,,,,,,,,,,,,,,,,,,,,,,,,,,,,,,,,,,,,007,001,2023-11-09_18h10.13.503,untitled,2023.2.2,59.966090212277884,2023-11-09 18h10.24.739024 +0800,
8,condition_1/leftstar.PNG,space,,,,,1,17,42,2,,,,,,,,,181.83406928214958,,,,,,,,,,,,,,,,,,,,,,,,,,,,,,,,,,,,,,,,,,,,,181.73593279108695,181.83406928214958,182.25201749931648,182.2520616682641,182.7350968862395,183.25000405633205,183.01970295631486,183.019742017289,184.35454053777949,184.35454053777949,184.7520848043796,space,1,0.3950332468984925,None,,,,,,,,,,,,,,,,,,,,,,,,,,,,,,,,,,,,,,,,,,,,,,,,,,,,,,,,,,,,,,,007,001,2023-11-09_18h10.13.503,untitled,2023.2.2,59.966090212277884,2023-11-09 18h10.24.739024 +0800,
2,condition_1/rightstar.PNG,left,,,,,1,18,43,5,,,,,,,,,184.85348138444124,,,,,,,,,,,,,,,,,,,,,,,,,,,,,,,,,,,,,,,,,,,,,184.75263616505367,184.85348138444124,185.2681442732105,185.2681623013525,185.7680120668365,186.2744682449304,186.05173325561213,186.0517500818778,187.35576915565207,187.35576915565207,187.95289937592588,right,0,0.5852631958487109,None,,,,,,,,,,,,,,,,,,,,,,,,,,,,,,,,,,,,,,,,,,,,,,,,,,,,,,,,,,,,,,,007,001,2023-11-09_18h10.13.503,untitled,2023.2.2,59.966090212277884,2023-11-09 18h10.24.739024 +0800,
2,condition_1/leftstar.PNG,left,,,,,1,19,44,1,,,,,,,,,188.06117429307164,,,,,,,,,,,,,,,,,,,,,,,,,,,,,,,,,,,,,,,,,,,,,187.95400209727381,188.06117429307164,188.4680120668363,188.46802588841183,188.96805653625324,189.47535432810628,189.25230144255192,189.25232698241962,190.57255666094784,190.57255666094784,191.08527461367203,left,1,0.5048342462582696,None,,,,,,,,,,,,,,,,,,,,,,,,,,,,,,,,,,,,,,,,,,,,,,,,,,,,,,,,,,,,,,,007,001,2023-11-09_18h10.13.503,untitled,2023.2.2,59.966090212277884,2023-11-09 18h10.24.739024 +0800,
1,condition_1/leftstar.PNG,left,,,,,1,20,45,16,,,,,,,,,191.18664084636112,,,,,,,,,,,,,,,,,,,,,,,,,,,,,,,,,,,,,,,,,,,,,191.0858554203112,191.18664084636112,191.60131815764407,191.6013307773435,192.08479236087533,192.5923668847072,192.36911719193677,192.36914543602575,193.70416359937872,193.70416359937872,194.30207684195034,left,1,0.5966966434602909,None,,,,,,,,,,,,,,,,,,,,,,,,,,,,,,,,,,,,,,,,,,,,,,,,,,,,,,,,,,,,,,,007,001,2023-11-09_18h10.13.503,untitled,2023.2.2,59.966090212277884,2023-11-09 18h10.24.739024 +0800,
2,condition_1/rightstar.PNG,right,,,,,1,21,46,13,,,,,,,,,194.40266095374886,,,,,,,,,,,,,,,,,,,,,,,,,,,,,,,,,,,,,,,,,,,,,194.30260747026114,194.40266095374886,194.81797045187545,194.81798307157487,195.31779678077487,195.82919687632398,195.602343658451,195.60237460676126,196.92190809854196,196.92190809854196,197.28607866880202,right,1,0.34813183379264956,None,,,,,,,,,,,,,,,,,,,,,,,,,,,,,,,,,,,,,,,,,,,,,,,,,,,,,,,,,,,,,,,007,001,2023-11-09_18h10.13.503,untitled,2023.2.2,59.966090212277884,2023-11-09 18h10.24.739024 +0800,
1,condition_1/rightstar.PNG,right,,,,,1,22,47,21,,,,,,,,,197.39302731563976,,,,,,,,,,,,,,,,,,,,,,,,,,,,,,,,,,,,,,,,,,,,,197.28707472364363,197.39302731563976,197.8013007304403,197.8013145520158,198.30137945332672,198.8017201852092,198.5854470828965,198.58547172135718,199.90523867757565,199.90523867757565,200.4350959848323,right,1,0.524137879229329,None,,,,,,,,,,,,,,,,,,,,,,,,,,,,,,,,,,,,,,,,,,,,,,,,,,,,,,,,,,,,,,,007,001,2023-11-09_18h10.13.503,untitled,2023.2.2,59.966090212277884,2023-11-09 18h10.24.739024 +0800,
9,condition_1/rightstar.PNG,space,,,,,1,23,48,7,,,,,,,,,200.532309134559,,,,,,,,,,,,,,,,,,,,,,,,,,,,,,,,,,,,,,,,,,,,,200.43555329869923,200.532309134559,200.95135015759615,200.9513672843309,201.43467713100154,201.9422222088681,201.71879794359006,201.7188213801744,203.0395363161897,203.0395363161897,203.36859527722777,space,1,0.31865431939263544,None,,,,,,,,,,,,,,,,,,,,,,,,,,,,,,,,,,,,,,,,,,,,,,,,,,,,,,,,,,,,,,,007,001,2023-11-09_18h10.13.503,untitled,2023.2.2,59.966090212277884,2023-11-09 18h10.24.739024 +0800,
9,condition_1/leftstar.PNG,space,,,,,1,24,49,24,,,,,,,,,203.47005255203385,,,,,,,,,,,,,,,,,,,,,,,,,,,,,,,,,,,,,,,,,,,,,203.3691397271141,203.47005255203385,203.8846367179167,203.88465354418258,204.36805713719127,204.8879250510047,204.6523828696595,204.65240991187238,205.97266452933036,205.97266452933036,206.4196485714201,space,1,0.43323127401890815,None,,,,,,,,,,,,,,,,,,,,,,,,,,,,,,,,,,,,,,,,,,,,,,,,,,,,,,,,,,,,,,,007,001,2023-11-09_18h10.13.503,untitled,2023.2.2,59.966090212277884,2023-11-09 18h10.24.739024 +0800,
,,,,,,,,,,,,,,,,,,,,,,,,,,,,,,,,,,,,,,,,,,,,,,,,,,,,,,,,,,,,,,,,,,,,,,,,,,,,,,,,206.42049379080754,206.43449053973268,206.43449053973268,239.0528050286498,space,32.610806068272495,None,,,,,,,,,,,,,,,,,,,,,,,,,,,,,,,,,,,,,,,,,,,,,,,,,,,,,,,007,001,2023-11-09_18h10.13.503,untitled,2023.2.2,59.966090212277884,2023-11-09 18h10.24.739024 +0800,
,,,,,,,,,,,,,,,,,,,,,,,,,,,,,,,,,,,,,,,,,,,,,,,,,,,,,,,,,,,,,,,,,,,,,,,,,,,,,,,,,,,,,,,239.05288134778402,239.0678137572752,239.0678137572752,245.43598417129147,space,6.353313422252086,None,,,,,,,,,,,,,,,,,,,,,,,,,,,,,,,,,,,,,,,,,,,,,,,,007,001,2023-11-09_18h10.13.503,untitled,2023.2.2,59.966090212277884,2023-11-09 18h10.24.739024 +0800,
1,test2/leftstar.PNG,space,,,,,,,,,0,0,0,0,,,,,245.5943818300368,,,,,,,,,,,,,,,,,,,,,,,,,,,,,,,,,,,,,,,,,,,,,,,,,,,,,,,,,,,,,,,,,,,,,,,,,,,245.46918870356626,245.5943818300368,245.9517155279391,245.9517437720283,246.45143639220828,246.97119253154187,246.73579127017274,246.73582311989026,248.06316009290504,248.06316009290504,248.86778581365525,249.0352774681278,space,0.9593958168700283,None,,,,,,,,,,,,,,,,,,,,,,,,,,,,,,,,,007,001,2023-11-09_18h10.13.503,untitled,2023.2.2,59.966090212277884,2023-11-09 18h10.24.739024 +0800,
8,test2/rightstar.PNG,right,,,,,,,,,0,1,1,1,,,,,249.12696469188404,,,,,,,,,,,,,,,,,,,,,,,,,,,,,,,,,,,,,,,,,,,,,,,,,,,,,,,,,,,,,,,,,,,,,,,,,,,249.03581440628818,249.12696469188404,249.5515514718477,249.55159053282182,250.0347786895345,250.54501506852193,250.31905214039125,250.31908188682542,251.63927130250318,251.63927130250318,,252.13643006733514,right,0.4940435019063898,None,,,,,,,,,,,,,,,,,,,,,,,,,,,,,,,,,007,001,2023-11-09_18h10.13.503,untitled,2023.2.2,59.966090212277884,2023-11-09 18h10.24.739024 +0800,
9,test2/rightstar.PNG,right,,,,,,,,,0,2,2,3,,,,,252.24148245411084,,,,,,,,,,,,,,,,,,,,,,,,,,,,,,,,,,,,,,,,,,,,,,,,,,,,,,,,,,,,,,,,,,,,,,,,,,,252.13744655407095,252.24148245411084,252.6515986454856,252.65162719004365,253.1511482424064,253.6619032309436,253.4360181242921,253.436053880107,254.75524874328835,254.75524874328835,,255.25230865380854,right,0.4821884962425429,None,,,,,,,,,,,,,,,,,,,,,,,,,,,,,,,,,007,001,2023-11-09_18h10.13.503,untitled,2023.2.2,59.966090212277884,2023-11-09 18h10.24.739024 +0800,
1,test2/blank.PNG,space,,,,,,,,,0,3,3,2,,,,,255.3590592915541,,,,,,,,,,,,,,,,,,,,,,,,,,,,,,,,,,,,,,,,,,,,,,,,,,,,,,,,,,,,,,,,,,,,,,,,,,,255.25297599552914,255.3590592915541,255.76815478962658,255.76817642339688,256.2680847803422,256.64410584923075,256.5520475462197,256.5520715837422,257.8680234846597,257.8680234846597,,258.3852950455662,space,0.5126506476608483,None,,,,,,,,,,,,,,,,,,,,,,,,,,,,,,,,,007,001,2023-11-09_18h10.13.503,untitled,2023.2.2,59.966090212277884,2023-11-09 18h10.24.739024 +0800,
2,test2/leftstar.PNG,space,,,,,,,,,0,4,4,4,,,,,258.47712018460834,,,,,,,,,,,,,,,,,,,,,,,,,,,,,,,,,,,,,,,,,,,,,,,,,,,,,,,,,,,,,,,,,,,,,,,,,,,258.38572381487506,258.47712018460834,258.9013812561409,258.9014031903803,259.384742483016,259.8894925979455,259.6689924972884,259.6690207413774,260.990151226064,260.990151226064,,261.6705059598032,space,0.6713367566771922,None,,,,,,,,,,,,,,,,,,,,,,,,,,,,,,,,,007,001,2023-11-09_18h10.13.503,untitled,2023.2.2,59.966090212277884,2023-11-09 18h10.24.739024 +0800,
8,test2/leftstar.PNG,left,,,,,,,,,0,5,5,5,,,,,261.7833852643978,,,,,,,,,,,,,,,,,,,,,,,,,,,,,,,,,,,,,,,,,,,,,,,,,,,,,,,,,,,,,,,,,,,,,,,,,,,261.6718980328294,261.7833852643978,262.1850261257823,262.18505136518115,262.68483683029217,263.18601016186267,262.9688134177452,262.968841060896,264.2890536126895,264.2890536126895,265.10146027949645,265.1696186747513,left,0.8764239978606838,None,,,,,,,,,,,,,,,,,,,,,,,,,,,,,,,,,007,001,2023-11-09_18h10.13.503,untitled,2023.2.2,59.966090212277884,2023-11-09 18h10.24.739024 +0800,
,,,,,,,,,,,,,,,,,,,,,,,,,,,,,,,,,,,,,,,,,,,,,,,,,,,,,,,,,,,,,,,,,,,,,,,,,,,,,,,,,,,,,,,,,,,,,,,,,,,,,,,,,,,,,265.1702613780112,265.18507209754443,265.18507209754443,266.18508832287216,270.56932421509987,space,5.381002244503634,None,,,,,,,,,,,,,,,,,,,,,,,,,007,001,2023-11-09_18h10.13.503,untitled,2023.2.2,59.966090212277884,2023-11-09 18h10.24.739024 +0800,
,,,,,,,,,,,,,,,,,,,,,,,,,,,,,,,,,,,,,,,,,,,,,,,,,,,,,,,,,,,,,,,,,,,,,,,,,,,,,,,,,,,,,,,,,,,,,,,,,,,,,,,,,,,,,,,,,,,,,270.5693816046851,270.58447115948,270.58447115948,271.5847851496187,274.5526650100808,space,3.9561468452252484,None,,,,,,,,,,,,,,,,,007,001,2023-11-09_18h10.13.503,untitled,2023.2.2,59.966090212277884,2023-11-09 18h10.24.739024 +0800,
1,condition_2/leftstar.PNG,space,,,,,,,,,,,,,0,0,0,0,274.707501810326,,,,,,,,,,,,,,,,,,,,,,,,,,,,,,,,,,,,,,,,,,,,,,,,,,,,,,,,,,,,,,,,,,,,,,,,,,,,,,,,,,,,,,,,,,,,,,,,,,,,,,,,,,274.57525937989203,274.707501810326,275.0680048555796,275.06802468653564,275.56812384131626,276.0853031582301,275.8523453110306,275.8523759588718,277.18170564250795,277.18170564250795,277.8353889421387,space,1,0.6405452911994871,None,,007,001,2023-11-09_18h10.13.503,untitled,2023.2.2,59.966090212277884,2023-11-09 18h10.24.739024 +0800,
9,condition_2/leftstar.PNG,left,,,,,,,,,,,,,0,1,1,19,277.94212305408746,,,,,,,,,,,,,,,,,,,,,,,,,,,,,,,,,,,,,,,,,,,,,,,,,,,,,,,,,,,,,,,,,,,,,,,,,,,,,,,,,,,,,,,,,,,,,,,,,,,,,,,,,,277.83621372963194,277.94212305408746,278.35138411059665,278.35140304014567,278.85146613864254,279.363730082659,279.13536129898785,279.1353862379174,280.45520217058834,280.45520217058834,280.8524931417944,left,1,0.38192618677749124,None,,007,001,2023-11-09_18h10.13.503,untitled,2023.2.2,59.966090212277884,2023-11-09 18h10.24.739024 +0800,
1,condition_2/blank.PNG,space,,,,,,,,,,,,,0,2,2,8,280.95884475666526,,,,,,,,,,,,,,,,,,,,,,,,,,,,,,,,,,,,,,,,,,,,,,,,,,,,,,,,,,,,,,,,,,,,,,,,,,,,,,,,,,,,,,,,,,,,,,,,,,,,,,,,,,280.8534182859444,280.95884475666526,281.36792463034794,281.367942057552,281.86796038616285,282.24334596304834,282.15212747098235,282.15215301085004,283.46803730623515,283.46803730623515,283.73609594577147,space,1,0.2649223437786077,None,,007,001,2023-11-09_18h10.13.503,untitled,2023.2.2,59.966090212277884,2023-11-09 18h10.24.739024 +0800,
1,condition_2/rightstar.PNG,space,,,,,,,,,,,,,0,3,3,4,283.84413048769125,,,,,,,,,,,,,,,,,,,,,,,,,,,,,,,,,,,,,,,,,,,,,,,,,,,,,,,,,,,,,,,,,,,,,,,,,,,,,,,,,,,,,,,,,,,,,,,,,,,,,,,,,,283.7370877940466,283.84413048769125,284.2512531060986,284.2512714347097,284.75131500271937,285.2675298140398,285.03624618028743,285.0362861426688,286.35523582312,286.35523582312,286.9526478833459,space,1,0.5855282095351413,None,,007,001,2023-11-09_18h10.13.503,untitled,2023.2.2,59.966090212277884,2023-11-09 18h10.24.739024 +0800,
8,condition_2/rightstar.PNG,right,,,,,,,,,,,,,0,4,4,23,287.0635675289127,,,,,,,,,,,,,,,,,,,,,,,,,,,,,,,,,,,,,,,,,,,,,,,,,,,,,,,,,,,,,,,,,,,,,,,,,,,,,,,,,,,,,,,,,,,,,,,,,,,,,,,,,,286.95364093349735,287.0635675289127,287.4680406113944,287.46805924047453,287.96795798241055,288.47526899490117,288.2520328232372,288.2520559593527,289.5717979766416,289.5717979766416,289.9520289171396,right,1,0.37764480353826,None,,007,001,2023-11-09_18h10.13.503,untitled,2023.2.2,59.966090212277884,2023-11-09 18h10.24.739024 +0800,
2,condition_2/leftstar.PNG,space,,,,,,,,,,,,,0,5,5,17,290.0516389083359,,,,,,,,,,,,,,,,,,,,,,,,,,,,,,,,,,,,,,,,,,,,,,,,,,,,,,,,,,,,,,,,,,,,,,,,,,,,,,,,,,,,,,,,,,,,,,,,,,,,,,,,,,289.95248893522785,290.0516389083359,290.4685375871736,290.4685820565903,290.95165513366373,291.4627691826943,291.2362572976417,291.2363008656514,292.57189683095316,292.57189683095316,293.00198790311674,space,1,0.41762461201938095,None,,007,001,2023-11-09_18h10.13.503,untitled,2023.2.2,59.966090212277884,2023-11-09 18h10.24.739024 +0800,
9,condition_2/rightstar.PNG,right,,,,,,,,,,,,,0,6,6,15,293.09962471417884,,,,,,,,,,,,,,,,,,,,,,,,,,,,,,,,,,,,,,,,,,,,,,,,,,,,,,,,,,,,,,,,,,,,,,,,,,,,,,,,,,,,,,,,,,,,,,,,,,,,,,,,,,293.0025642027206,293.09962471417884,293.5179806678225,293.51800019830966,294.01804737194766,294.52638688993534,294.3021267198096,294.30215195920846,295.605669850637,295.605669850637,296.0029836574895,right,1,0.38332697340547384,None,,007,001,2023-11-09_18h10.13.503,untitled,2023.2.2,59.966090212277884,2023-11-09 18h10.24.739024 +0800,
1,condition_2/leftstar.PNG,space,,,,,,,,,,,,,0,7,7,16,296.1171222277976,,,,,,,,,,,,,,,,,,,,,,,,,,,,,,,,,,,,,,,,,,,,,,,,,,,,,,,,,,,,,,,,,,,,,,,,,,,,,,,,,,,,,,,,,,,,,,,,,,,,,,,,,,296.0040779657045,296.1171222277976,296.51806570055874,296.51809214183345,297.0181744703482,297.52647612923784,297.30244401510754,297.30247616529414,298.62258475480235,298.62258475480235,299.1533230372613,space,1,0.5263337069163754,None,,007,001,2023-11-09_18h10.13.503,untitled,2023.2.2,59.966090212277884,2023-11-09 18h10.24.739024 +0800,
2,condition_2/leftstar.PNG,space,,,,,,,,,,,,,0,8,8,1,299.2624368639447,,,,,,,,,,,,,,,,,,,,,,,,,,,,,,,,,,,,,,,,,,,,,,,,,,,,,,,,,,,,,,,,,,,,,,,,,,,,,,,,,,,,,,,,,,,,,,,,,,,,,,,,,,299.15461865972793,299.2624368639447,299.6680204799693,299.66804031092533,300.16829270491235,300.66145222692626,300.4517002040186,300.45171252324894,301.77123940471074,301.77123940471074,302.1187703004391,space,1,0.3462205502789857,None,,007,001,2023-11-09_18h10.13.503,untitled,2023.2.2,59.966090212277884,2023-11-09 18h10.24.739024 +0800,
1,condition_2/leftstar.PNG,space,,,,,,,,,,,,,0,9,9,22,302.2185476528862,,,,,,,,,,,,,,,,,,,,,,,,,,,,,,,,,,,,,,,,,,,,,,,,,,,,,,,,,,,,,,,,,,,,,,,,,,,,,,,,,,,,,,,,,,,,,,,,,,,,,,,,,,302.1193366845646,302.2185476528862,302.6348060322164,302.63483067067705,303.1346720230281,303.64624609014686,303.4187874271738,303.41881356797967,304.73763164299476,304.73763164299476,305.0686914273181,space,1,0.32433348456947897,None,,007,001,2023-11-09_18h10.13.503,untitled,2023.2.2,59.966090212277884,2023-11-09 18h10.24.739024 +0800,
2,condition_2/blank.PNG,space,,,,,,,,,,,,,0,10,10,9,305.168793586789,,,,,,,,,,,,,,,,,,,,,,,,,,,,,,,,,,,,,,,,,,,,,,,,,,,,,,,,,,,,,,,,,,,,,,,,,,,,,,,,,,,,,,,,,,,,,,,,,,,,,,,,,,305.06926983020503,305.168793586789,305.58448227683425,305.58452824859614,306.0683302635414,306.4543578526079,306.35145442035014,306.3514664391116,307.68461628602245,307.68461628602245,307.80268739502367,space,1,0.11206653586236826,None,,007,001,2023-11-09_18h10.13.503,untitled,2023.2.2,59.966090212277884,2023-11-09 18h10.24.739024 +0800,
9,condition_2/leftstar.PNG,left,,,,,,,,,,,,,0,11,11,20,307.9087842121553,,,,,,,,,,,,,,,,,,,,,,,,,,,,,,,,,,,,,,,,,,,,,,,,,,,,,,,,,,,,,,,,,,,,,,,,,,,,,,,,,,,,,,,,,,,,,,,,,,,,,,,,,,307.8037011775382,307.9087842121553,308.3180452686645,308.3180644986826,308.81800740956646,309.32578655280895,309.10196536793933,309.1020029265685,310.4218567183375,310.4218567183375,311.03509778764646,left,1,0.5992963015266923,None,,007,001,2023-11-09_18h10.13.503,untitled,2023.2.2,59.966090212277884,2023-11-09 18h10.24.739024 +0800,
9,condition_2/rightstar.PNG,right,,,,,,,,,,,,,0,12,12,7,311.1342288312055,,,,,,,,,,,,,,,,,,,,,,,,,,,,,,,,,,,,,,,,,,,,,,,,,,,,,,,,,,,,,,,,,,,,,,,,,,,,,,,,,,,,,,,,,,,,,,,,,,,,,,,,,,311.0355460874425,311.1342288312055,311.5519631144216,311.5520247105733,312.0350196656982,312.5462641182887,312.3194631820272,312.31951786739114,313.63909432624337,313.63909432624337,314.21871140850885,right,1,0.5742131467220588,None,,007,001,2023-11-09_18h10.13.503,untitled,2023.2.2,59.966090212277884,2023-11-09 18h10.24.739024 +0800,
8,condition_2/rightstar.PNG,right,,,,,,,,,,,,,0,13,13,14,314.3227836653016,,,,,,,,,,,,,,,,,,,,,,,,,,,,,,,,,,,,,,,,,,,,,,,,,,,,,,,,,,,,,,,,,,,,,,,,,,,,,,,,,,,,,,,,,,,,,,,,,,,,,,,,,,314.21929161420985,314.3227836653016,314.734700267117,314.73471979760416,315.2346768305324,315.74154104557215,315.5186167607635,315.5186413992242,316.8226226139004,316.8226226139004,317.45203402511333,left,0,0.6218654319393409,None,,007,001,2023-11-09_18h10.13.503,untitled,2023.2.2,59.966090212277884,2023-11-09 18h10.24.739024 +0800,
1,condition_2/rightstar.PNG,space,,,,,,,,,,,,,0,14,14,12,317.5499875305352,,,,,,,,,,,,,,,,,,,,,,,,,,,,,,,,,,,,,,,,,,,,,,,,,,,,,,,,,,,,,,,,,,,,,,,,,,,,,,,,,,,,,,,,,,,,,,,,,,,,,,,,,,317.45258448438017,317.5499875305352,317.96816981307825,317.9681833341847,318.4516494247521,318.9629335392549,318.7360839270102,318.73612449032953,320.0560801411002,320.0560801411002,320.60203898285226,space,1,0.5326240261047133,None,,007,001,2023-11-09_18h10.13.503,untitled,2023.2.2,59.966090212277884,2023-11-09 18h10.24.739024 +0800,
8,condition_2/rightstar.PNG,right,,,,,,,,,,,,,0,15,15,6,320.7003473422012,,,,,,,,,,,,,,,,,,,,,,,,,,,,,,,,,,,,,,,,,,,,,,,,,,,,,,,,,,,,,,,,,,,,,,,,,,,,,,,,,,,,,,,,,,,,,,,,,,,,,,,,,,320.6026086721372,320.7003473422012,321.1179710528136,321.1179887804865,321.61795723123805,322.12566516332004,321.902093067278,321.90211770573865,323.2218927746212,323.2218927746212,323.65268123540864,right,1,0.4237553821515121,None,,007,001,2023-11-09_18h10.13.503,untitled,2023.2.2,59.966090212277884,2023-11-09 18h10.24.739024 +0800,
2,condition_2/rightstar.PNG,space,,,,,,,,,,,,,0,16,16,5,323.76806765360743,,,,,,,,,,,,,,,,,,,,,,,,,,,,,,,,,,,,,,,,,,,,,,,,,,,,,,,,,,,,,,,,,,,,,,,,,,,,,,,,,,,,,,,,,,,,,,,,,,,,,,,,,,323.6536917127637,323.76806765360743,324.167924930817,324.16794235802104,324.66794746599453,325.1804499824227,324.9521277714514,324.95215361178816,326.27342261269837,326.27342261269837,326.73523870762256,right,0,0.45975217314230576,None,,007,001,2023-11-09_18h10.13.503,untitled,2023.2.2,59.966090212277884,2023-11-09 18h10.24.739024 +0800,
2,condition_2/rightstar.PNG,space,,,,,,,,,,,,,0,17,17,13,326.8288663603887,,,,,,,,,,,,,,,,,,,,,,,,,,,,,,,,,,,,,,,,,,,,,,,,,,,,,,,,,,,,,,,,,,,,,,,,,,,,,,,,,,,,,,,,,,,,,,,,,,,,,,,,,,326.735719157605,326.8288663603887,327.2512504018773,327.25126542532894,327.73458458653954,328.25266440914265,328.01873093899576,328.0187549765185,329.338801969875,329.338801969875,329.51859873262174,space,1,0.1708584099781092,None,,007,001,2023-11-09_18h10.13.503,untitled,2023.2.2,59.966090212277884,2023-11-09 18h10.24.739024 +0800,
2,condition_2/rightstar.PNG,space,,,,,,,,,,,,,0,18,18,21,329.6167205007016,,,,,,,,,,,,,,,,,,,,,,,,,,,,,,,,,,,,,,,,,,,,,,,,,,,,,,,,,,,,,,,,,,,,,,,,,,,,,,,,,,,,,,,,,,,,,,,,,,,,,,,,,,329.5191819430131,329.6167205007016,330.0345563424505,330.0345716663712,330.5180365550625,331.02563421500963,330.80224270085614,330.8022709449451,332.12059715215446,332.12059715215446,332.70195304870913,space,1,0.5650948130030429,None,,007,001,2023-11-09_18h10.13.503,untitled,2023.2.2,59.966090212277884,2023-11-09 18h10.24.739024 +0800,
8,condition_2/leftstar.PNG,left,,,,,,,,,,,,,0,19,19,2,332.80185749955695,,,,,,,,,,,,,,,,,,,,,,,,,,,,,,,,,,,,,,,,,,,,,,,,,,,,,,,,,,,,,,,,,,,,,,,,,,,,,,,,,,,,,,,,,,,,,,,,,,,,,,,,,,332.70254857833083,332.80185749955695,333.2181107709134,333.2181327051528,333.7179199730781,334.2395098749148,334.0021059874464,334.00213212825224,335.30607157773284,335.30607157773284,335.7698933034467,left,1,0.4596611310255412,None,,007,001,2023-11-09_18h10.13.503,untitled,2023.2.2,59.966090212277884,2023-11-09 18h10.24.739024 +0800,
9,condition_2/leftstar.PNG,left,,,,,,,,,,,,,0,20,20,3,335.8759489563208,,,,,,,,,,,,,,,,,,,,,,,,,,,,,,,,,,,,,,,,,,,,,,,,,,,,,,,,,,,,,,,,,,,,,,,,,,,,,,,,,,,,,,,,,,,,,,,,,,,,,,,,,,335.7710930762921,335.8759489563208,336.2845291500032,336.28454417345483,336.78469440797085,337.29709206070675,337.0688771171799,337.0689065631452,338.3889424391475,338.3889424391475,339.1692343748591,left,1,0.7676827527770911,None,,007,001,2023-11-09_18h10.13.503,untitled,2023.2.2,59.966090212277884,2023-11-09 18h10.24.739024 +0800,
9,condition_2/blank.PNG,space,,,,,,,,,,,,,0,21,21,11,339.26967936949586,,,,,,,,,,,,,,,,,,,,,,,,,,,,,,,,,,,,,,,,,,,,,,,,,,,,,,,,,,,,,,,,,,,,,,,,,,,,,,,,,,,,,,,,,,,,,,,,,,,,,,,,,,339.1699744300854,339.26967936949586,339.6852331489456,339.68527160898157,340.18440325347865,340.5756475858816,340.4691126849011,340.46914393368047,341.7848671776644,341.7848671776644,342.6351611866123,space,1,0.8362693164031043,None,342.58462259587213,007,001,2023-11-09_18h10.13.503,untitled,2023.2.2,59.966090212277884,2023-11-09 18h10.24.739024 +0800,
8,condition_2/blank.PNG,space,,,,,,,,,,,,,0,22,22,24,342.7347663703042,,,,,,,,,,,,,,,,,,,,,,,,,,,,,,,,,,,,,,,,,,,,,,,,,,,,,,,,,,,,,,,,,,,,,,,,,,,,,,,,,,,,,,,,,,,,,,,,,,,,,,,,,,342.6358171105096,342.7347663703042,343.1520793959371,343.1520947198578,343.6350644355839,343.9958769639409,343.9196013977819,343.9196446653227,345.234803327995,345.234803327995,346.33649286536297,space,1,1.090336014518698,None,346.03478439844594,007,001,2023-11-09_18h10.13.503,untitled,2023.2.2,59.966090212277884,2023-11-09 18h10.24.739024 +0800,
8,condition_2/blank.PNG,space,,,,,,,,,,,,,0,23,23,10,346.4479689795771,,,,,,,,,,,,,,,,,,,,,,,,,,,,,,,,,,,,,,,,,,,,,,,,,,,,,,,,,,,,,,,,,,,,,,,,,,,,,,,,,,,,,,,,,,,,,,,,,,,,,,,,,,346.33768692929675,346.4479689795771,346.8513279228878,346.85134595102954,347.3513285238257,347.7070556138133,347.6353925477672,347.635418388104,348.9512666272051,348.9512666272051,349.601876729575,space,1,0.6387046179086155,None,,007,001,2023-11-09_18h10.13.503,untitled,2023.2.2,59.966090212277884,2023-11-09 18h10.24.739024 +0800,
8,condition_2/leftstar.PNG,left,,,,,,,,,,,,,0,24,24,18,349.70036747362633,,,,,,,,,,,,,,,,,,,,,,,,,,,,,,,,,,,,,,,,,,,,,,,,,,,,,,,,,,,,,,,,,,,,,,,,,,,,,,,,,,,,,,,,,,,,,,,,,,,,,,,,,,349.6024223813374,349.70036747362633,350.11801732504455,350.1180371560006,350.601335885317,351.12965569253606,350.8852313461314,350.88525478271595,352.21232644157544,352.21232644157544,352.68535604077965,left,1,0.46546529131978787,None,,007,001,2023-11-09_18h10.13.503,untitled,2023.2.2,59.966090212277884,2023-11-09 18h10.24.739024 +0800,
1,condition_2/rightstar.PNG,space,,,,,,,,,,,,,1,0,25,12,352.78823513504585,,,,,,,,,,,,,,,,,,,,,,,,,,,,,,,,,,,,,,,,,,,,,,,,,,,,,,,,,,,,,,,,,,,,,,,,,,,,,,,,,,,,,,,,,,,,,,,,,,,,,,,,,,352.68592753287885,352.78823513504585,353.20127008259897,353.20128300276747,353.70143864572606,354.211023607852,353.9854783316757,353.98550717670287,355.3052365742926,355.3052365742926,355.7690486849974,space,1,0.45160976284000753,None,,007,001,2023-11-09_18h10.13.503,untitled,2023.2.2,59.966090212277884,2023-11-09 18h10.24.739024 +0800,
8,condition_2/blank.PNG,space,,,,,,,,,,,,,1,1,26,10,355.8827996502541,,,,,,,,,,,,,,,,,,,,,,,,,,,,,,,,,,,,,,,,,,,,,,,,,,,,,,,,,,,,,,,,,,,,,,,,,,,,,,,,,,,,,,,,,,,,,,,,,,,,,,,,,,355.7699921577582,355.8827996502541,356.28452494343674,356.28454237064057,356.78484253920374,357.1549900394516,357.0690763281482,357.06910517317533,358.3846646615368,358.3846646615368,359.187114385556,space,1,0.7887922046313633,None,359.1851102571113,007,001,2023-11-09_18h10.13.503,untitled,2023.2.2,59.966090212277884,2023-11-09 18h10.24.739024 +0800,
8,condition_2/leftstar.PNG,left,,,,,,,,,,,,,1,2,27,18,359.3036780414227,,,,,,,,,,,,,,,,,,,,,,,,,,,,,,,,,,,,,,,,,,,,,,,,,,,,,,,,,,,,,,,,,,,,,,,,,,,,,,,,,,,,,,,,,,,,,,,,,,,,,,,,,,359.18876966945413,359.3036780414227,359.70130974451126,359.7013265707769,360.2014759038859,360.70589910850845,360.48589117612596,360.48592723240995,361.80675784900245,361.80675784900245,362.16912169897205,left,1,0.35798271101180035,None,,007,001,2023-11-09_18h10.13.503,untitled,2023.2.2,59.966090212277884,2023-11-09 18h10.24.739024 +0800,
1,condition_2/blank.PNG,space,,,,,,,,,,,,,1,3,28,8,362.2721035536474,,,,,,,,,,,,,,,,,,,,,,,,,,,,,,,,,,,,,,,,,,,,,,,,,,,,,,,,,,,,,,,,,,,,,,,,,,,,,,,,,,,,,,,,,,,,,,,,,,,,,,,,,,362.1696901863811,362.2721035536474,362.685219026901,362.6852562850611,363.1850228206231,363.55022129544227,363.4696171724063,363.469661641823,364.7847511966179,364.7847511966179,365.7706456779033,space,1,0.9814238025558097,None,365.58501530889725,007,001,2023-11-09_18h10.13.503,untitled,2023.2.2,59.966090212277884,2023-11-09 18h10.24.739024 +0800,
2,condition_2/leftstar.PNG,space,,,,,,,,,,,,,1,4,29,17,365.8875374459533,,,,,,,,,,,,,,,,,,,,,,,,,,,,,,,,,,,,,,,,,,,,,,,,,,,,,,,,,,,,,,,,,,,,,,,,,,,,,,,,,,,,,,,,,,,,,,,,,,,,,,,,,,365.772307271651,365.8875374459533,366.2846814878026,366.2847013187586,366.7847830463354,367.2989062927229,367.06892999972956,367.068961548978,368.39016624951546,368.39016624951546,368.7355256555484,space,1,0.3351224261070911,None,,007,001,2023-11-09_18h10.13.503,untitled,2023.2.2,59.966090212277884,2023-11-09 18h10.24.739024 +0800,
8,condition_2/rightstar.PNG,right,,,,,,,,,,,,,1,5,30,23,368.84070964776015,,,,,,,,,,,,,,,,,,,,,,,,,,,,,,,,,,,,,,,,,,,,,,,,,,,,,,,,,,,,,,,,,,,,,,,,,,,,,,,,,,,,,,,,,,,,,,,,,,,,,,,,,,368.7362714196861,368.84070964776015,369.25120292777024,369.251228768107,369.75138531247285,370.26329440256245,370.035765730305,370.03579727955344,371.3553184521038,371.3553184521038,371.86925120112505,right,1,0.5055776066437829,None,,007,001,2023-11-09_18h10.13.503,untitled,2023.2.2,59.966090212277884,2023-11-09 18h10.24.739024 +0800,
8,condition_2/rightstar.PNG,right,,,,,,,,,,,,,1,6,31,6,371.9847340698832,,,,,,,,,,,,,,,,,,,,,,,,,,,,,,,,,,,,,,,,,,,,,,,,,,,,,,,,,,,,,,,,,,,,,,,,,,,,,,,,,,,,,,,,,,,,,,,,,,,,,,,,,,371.8702349367363,371.9847340698832,372.38462469915544,372.3846445301115,372.8846941075019,373.3952372653714,373.1689861874386,373.1690195395013,374.487329821852,374.487329821852,375.102158269058,right,1,0.6050337576957645,None,,007,001,2023-11-09_18h10.13.503,untitled,2023.2.2,59.966090212277884,2023-11-09 18h10.24.739024 +0800,
1,condition_2/leftstar.PNG,space,,,,,,,,,,,,,1,7,32,16,375.2041215337142,,,,,,,,,,,,,,,,,,,,,,,,,,,,,,,,,,,,,,,,,,,,,,,,,,,,,,,,,,,,,,,,,,,,,,,,,,,,,,,,,,,,,,,,,,,,,,,,,,,,,,,,,,375.10274568601585,375.2041215337142,375.6178682924044,375.6178839167942,376.11811287419664,376.63296205376605,376.40221235348395,376.40224179944903,377.7218116479826,377.7218116479826,378.05256315107886,space,1,0.3233888099323394,None,,007,001,2023-11-09_18h10.13.503,untitled,2023.2.2,59.966090212277884,2023-11-09 18h10.24.739024 +0800,
1,condition_2/leftstar.PNG,space,,,,,,,,,,,,,1,8,33,0,378.15860918894396,,,,,,,,,,,,,,,,,,,,,,,,,,,,,,,,,,,,,,,,,,,,,,,,,,,,,,,,,,,,,,,,,,,,,,,,,,,,,,,,,,,,,,,,,,,,,,,,,,,,,,,,,,378.05354298059274,378.15860918894396,378.5685048360492,378.56854269514724,379.0683864512505,379.58161730461256,379.35212687004423,379.352153611788,380.67168830544483,380.67168830544483,381.3692836517805,space,1,0.6848614687526151,None,,007,001,2023-11-09_18h10.13.503,untitled,2023.2.2,59.966090212277884,2023-11-09 18h10.24.739024 +0800,
9,condition_2/rightstar.PNG,right,,,,,,,,,,,,,1,9,34,7,381.4800467529815,,,,,,,,,,,,,,,,,,,,,,,,,,,,,,,,,,,,,,,,,,,,,,,,,,,,,,,,,,,,,,,,,,,,,,,,,,,,,,,,,,,,,,,,,,,,,,,,,,,,,,,,,,381.3702202137538,381.4800467529815,381.8845471781451,381.88456190112765,382.38474338442325,382.896823741861,382.6689792766508,382.66900722027094,383.9897002220466,383.9897002220466,384.4534426239361,right,1,0.44709882126016964,None,,007,001,2023-11-09_18h10.13.503,untitled,2023.2.2,59.966090212277884,2023-11-09 18h10.24.739024 +0800,
2,condition_2/rightstar.PNG,space,,,,,,,,,,,,,1,10,35,21,384.56957300345834,,,,,,,,,,,,,,,,,,,,,,,,,,,,,,,,,,,,,,,,,,,,,,,,,,,,,,,,,,,,,,,,,,,,,,,,,,,,,,,,,,,,,,,,,,,,,,,,,,,,,,,,,,384.45492003016716,384.56957300345834,384.9678429027713,384.9678552220016,385.46793755051635,385.9797477862944,385.75284589243824,385.75288915997885,387.0735611289224,387.0735611289224,387.78706961567013,space,1,0.6996923197109481,None,,007,001,2023-11-09_18h10.13.503,untitled,2023.2.2,59.966090212277884,2023-11-09 18h10.24.739024 +0800,
2,condition_2/rightstar.PNG,space,,,,,,,,,,,,,1,11,36,13,387.897925862271,,,,,,,,,,,,,,,,,,,,,,,,,,,,,,,,,,,,,,,,,,,,,,,,,,,,,,,,,,,,,,,,,,,,,,,,,,,,,,,,,,,,,,,,,,,,,,,,,,,,,,,,,,387.788712880807,387.897925862271,388.3011745334468,388.30119015783634,388.8014290307169,389.2953123826294,389.0851529237141,389.08516494247533,390.4041645007858,390.4041645007858,390.6686577747864,space,1,0.24883673414205987,None,,007,001,2023-11-09_18h10.13.503,untitled,2023.2.2,59.966090212277884,2023-11-09 18h10.24.739024 +0800,
8,condition_2/leftstar.PNG,left,,,,,,,,,,,,,1,12,37,2,390.76732729791206,,,,,,,,,,,,,,,,,,,,,,,,,,,,,,,,,,,,,,,,,,,,,,,,,,,,,,,,,,,,,,,,,,,,,,,,,,,,,,,,,,,,,,,,,,,,,,,,,,,,,,,,,,390.66921244061996,390.76732729791206,391.1846871967141,391.1847064267322,391.68460997617285,392.19097330933596,391.9685979814492,391.96863043210465,393.28852869329035,393.28852869329035,393.85259109469894,left,1,0.5486855982189809,None,,007,001,2023-11-09_18h10.13.503,untitled,2023.2.2,59.966090212277884,2023-11-09 18h10.24.739024 +0800,
2,condition_2/blank.PNG,space,,,,,,,,,,,,,1,13,38,9,393.96330371710246,,,,,,,,,,,,,,,,,,,,,,,,,,,,,,,,,,,,,,,,,,,,,,,,,,,,,,,,,,,,,,,,,,,,,,,,,,,,,,,,,,,,,,,,,,,,,,,,,,,,,,,,,,393.8535814406289,393.96330371710246,394.3679189214365,394.36793484629516,394.86811602912144,395.2542620029867,395.1521917713551,395.15222061638224,396.46818663934414,396.46818663934414,397.168774056302,space,1,0.6890809553713098,None,,007,001,2023-11-09_18h10.13.503,untitled,2023.2.2,59.966090212277884,2023-11-09 18h10.24.739024 +0800,
2,condition_2/leftstar.PNG,space,,,,,,,,,,,,,1,14,39,1,397.2686063945821,,,,,,,,,,,,,,,,,,,,,,,,,,,,,,,,,,,,,,,,,,,,,,,,,,,,,,,,,,,,,,,,,,,,,,,,,,,,,,,,,,,,,,,,,,,,,,,,,,,,,,,,,,397.16936417748116,397.2686063945821,397.68448468058637,397.68450661482575,398.1847091309535,398.6941495674748,398.46910096660895,398.4691349196096,399.78951302983955,399.78951302983955,400.15294324440447,space,1,0.36007788157303366,None,,007,001,2023-11-09_18h10.13.503,untitled,2023.2.2,59.966090212277884,2023-11-09 18h10.24.739024 +0800,
9,condition_2/leftstar.PNG,left,,,,,,,,,,,,,1,15,40,19,400.26509030596776,,,,,,,,,,,,,,,,,,,,,,,,,,,,,,,,,,,,,,,,,,,,,,,,,,,,,,,,,,,,,,,,,,,,,,,,,,,,,,,,,,,,,,,,,,,,,,,,,,,,,,,,,,400.1541358059933,400.26509030596776,400.6679552781893,400.6679694002339,401.1680225832524,401.67548773635644,401.4521491047526,401.4521746446203,402.77175741332235,402.77175741332235,403.1860660491027,left,1,0.41027453855463136,None,,007,001,2023-11-09_18h10.13.503,untitled,2023.2.2,59.966090212277884,2023-11-09 18h10.24.739024 +0800,
1,condition_2/leftstar.PNG,space,,,,,,,,,,,,,1,16,41,22,403.29773746818796,,,,,,,,,,,,,,,,,,,,,,,,,,,,,,,,,,,,,,,,,,,,,,,,,,,,,,,,,,,,,,,,,,,,,,,,,,,,,,,,,,,,,,,,,,,,,,,,,,,,,,,,,,403.1870542917495,403.29773746818796,403.7012697821299,403.701289012148,404.2014353405666,404.70918233362295,404.4855234020306,404.48555314846476,405.8052801423021,405.8052801423021,406.1021456493588,space,1,0.29554073909366707,None,,007,001,2023-11-09_18h10.13.503,untitled,2023.2.2,59.966090212277884,2023-11-09 18h10.24.739024 +0800,
9,condition_2/rightstar.PNG,right,,,,,,,,,,,,,1,17,42,15,406.19948709936216,,,,,,,,,,,,,,,,,,,,,,,,,,,,,,,,,,,,,,,,,,,,,,,,,,,,,,,,,,,,,,,,,,,,,,,,,,,,,,,,,,,,,,,,,,,,,,,,,,,,,,,,,,406.1025831322695,406.19948709936216,406.61801732504455,406.61803745646966,407.1179830715748,407.6250341783525,407.40212942403105,407.40215496389874,408.70666951110684,408.70666951110684,409.3037889144955,right,1,0.5862261990966999,None,,007,001,2023-11-09_18h10.13.503,untitled,2023.2.2,59.966090212277884,2023-11-09 18h10.24.739024 +0800,
8,condition_2/rightstar.PNG,right,,,,,,,,,,,,,1,18,43,14,409.41513793030936,,,,,,,,,,,,,,,,,,,,,,,,,,,,,,,,,,,,,,,,,,,,,,,,,,,,,,,,,,,,,,,,,,,,,,,,,,,,,,,,,,,,,,,,,,,,,,,,,,,,,,,,,,409.3054330810396,409.41513793030936,409.8179509213883,409.8179698509373,410.3179812687606,410.82589141650124,410.6021150015174,410.60214234419936,411.92280379672684,411.92280379672684,412.41964136016327,right,1,0.4902020053302749,None,,007,001,2023-11-09_18h10.13.503,untitled,2023.2.2,59.966090212277884,2023-11-09 18h10.24.739024 +0800,
1,condition_2/rightstar.PNG,space,,,,,,,,,,,,,1,19,44,4,412.5330648141751,,,,,,,,,,,,,,,,,,,,,,,,,,,,,,,,,,,,,,,,,,,,,,,,,,,,,,,,,,,,,,,,,,,,,,,,,,,,,,,,,,,,,,,,,,,,,,,,,,,,,,,,,,412.4208489452035,412.5330648141751,412.934672623966,412.93469245492224,413.43470387274533,413.946312794272,413.7191119337285,413.7191431825079,415.0394158281076,415.0394158281076,415.4696865807525,space,1,0.4217392349455622,None,,007,001,2023-11-09_18h10.13.503,untitled,2023.2.2,59.966090212277884,2023-11-09 18h10.24.739024 +0800,
9,condition_2/leftstar.PNG,left,,,,,,,,,,,,,1,20,45,20,415.5840709347292,,,,,,,,,,,,,,,,,,,,,,,,,,,,,,,,,,,,,,,,,,,,,,,,,,,,,,,,,,,,,,,,,,,,,,,,,,,,,,,,,,,,,,,,,,,,,,,,,,,,,,,,,,415.4708740343676,415.5840709347292,415.98462349727924,415.98464122495216,416.48452163827733,416.98895085228037,416.7690772295555,416.7691087788037,418.0884764116786,418.0884764116786,418.48598942949957,left,1,0.38855453362702974,None,,007,001,2023-11-09_18h10.13.503,untitled,2023.2.2,59.966090212277884,2023-11-09 18h10.24.739024 +0800,
9,condition_2/leftstar.PNG,left,,,,,,,,,,,,,1,21,46,3,418.5939061875588,,,,,,,,,,,,,,,,,,,,,,,,,,,,,,,,,,,,,,,,,,,,,,,,,,,,,,,,,,,,,,,,,,,,,,,,,,,,,,,,,,,,,,,,,,,,,,,,,,,,,,,,,,418.48699810404037,418.5939061875588,419.00124694648343,419.0012625708732,419.501400786628,420.01074777728036,419.7857688852298,419.7858013358855,421.10519871519455,421.10519871519455,421.5860095609246,left,1,0.46863523960905695,None,,007,001,2023-11-09_18h10.13.503,untitled,2023.2.2,59.966090212277884,2023-11-09 18h10.24.739024 +0800,
8,condition_2/blank.PNG,space,,,,,,,,,,,,,1,22,47,24,421.6945606091108,,,,,,,,,,,,,,,,,,,,,,,,,,,,,,,,,,,,,,,,,,,,,,,,,,,,,,,,,,,,,,,,,,,,,,,,,,,,,,,,,,,,,,,,,,,,,,,,,,,,,,,,,,421.58701012280176,421.6945606091108,422.10122531271327,422.1012400356958,422.6015579319319,422.9961573015478,422.8861147250859,422.8861597954408,424.20124965070477,424.20124965070477,425.66951321012107,space,1,1.4670202185611743,None,425.00130313419254,007,001,2023-11-09_18h10.13.503,untitled,2023.2.2,59.966090212277884,2023-11-09 18h10.24.739024 +0800,
9,condition_2/blank.PNG,space,,,,,,,,,,,,,1,23,48,11,425.7682103763975,,,,,,,,,,,,,,,,,,,,,,,,,,,,,,,,,,,,,,,,,,,,,,,,,,,,,,,,,,,,,,,,,,,,,,,,,,,,,,,,,,,,,,,,,,,,,,,,,,,,,,,,,,425.6704272369168,425.7682103763975,426.1846078728897,426.1846246991554,426.68465865215603,427.029290322193,426.9684345262956,426.968447145995,428.28499127137457,428.28499127137457,429.11892263823825,space,1,0.8246567892479106,None,429.08444141304585,007,001,2023-11-09_18h10.13.503,untitled,2023.2.2,59.966090212277884,2023-11-09 18h10.24.739024 +0800,
2,condition_2/rightstar.PNG,space,,,,,,,,,,,,,1,24,49,5,429.21687824694345,,,,,,,,,,,,,,,,,,,,,,,,,,,,,,,,,,,,,,,,,,,,,,,,,,,,,,,,,,,,,,,,,,,,,,,,,,,,,,,,,,,,,,,,,,,,,,,,,,,,,,,,,,429.1197507308909,429.21687824694345,429.63452299038795,429.6345380138396,430.1347588585784,430.6649541934962,430.4186498123572,430.41867324894156,431.7414827545799,431.7414827545799,432.10204439129484,space,1,0.3594679294378693,None,,007,001,2023-11-09_18h10.13.503,untitled,2023.2.2,59.966090212277884,2023-11-09 18h10.24.739024 +0800,
