stimuli,star,CorrectAns,trials_3.thisRepN,trials_3.thisTrialN,trials_3.thisN,trials_3.thisIndex,trials.thisRepN,trials.thisTrialN,trials.thisN,trials.thisIndex,trials_4.thisRepN,trials_4.thisTrialN,trials_4.thisN,trials_4.thisIndex,trials_2.thisRepN,trials_2.thisTrialN,trials_2.thisN,trials_2.thisIndex,thisRow.t,notes,routine_21.started,text_9.started,key_resp_8.started,routine_21.stopped,key_resp_8.keys,key_resp_8.rt,key_resp_8.duration,introduction.started,text_6.started,key_resp_5.started,introduction.stopped,key_resp_5.keys,key_resp_5.rt,key_resp_5.duration,routine_14.started,image_6.started,routine_14.stopped,routine_16.started,text_4.started,text_4.stopped,routine_16.stopped,routine_17.started,image_7.started,key_resp_3.started,image_7.stopped,routine_17.stopped,key_resp_3.keys,key_resp_3.rt,key_resp_3.duration,routine_20.started,text_8.started,key_resp_7.started,routine_20.stopped,key_resp_7.keys,key_resp_7.rt,key_resp_7.duration,routine_18.started,text_5.started,key_resp_4.started,routine_18.stopped,key_resp_4.keys,key_resp_4.rt,key_resp_4.duration,trial.started,image_3.started,trial.stopped,routine.started,text_3.started,text_3.stopped,routine.stopped,routine_1.started,image_2.started,key_resp.started,image_2.stopped,routine_1.stopped,key_resp.keys,key_resp.corr,key_resp.rt,key_resp.duration,routine_22.started,text_10.started,key_resp_9.started,routine_22.stopped,key_resp_9.keys,key_resp_9.rt,key_resp_9.duration,routine_19.started,text_7.started,key_resp_6.started,routine_19.stopped,key_resp_6.keys,key_resp_6.rt,key_resp_6.duration,routine_23.started,image_8.started,routine_23.stopped,routine_24.started,text_11.started,text_11.stopped,routine_24.stopped,routine_25.started,image_9.started,key_resp_10.started,routine_25.stopped,key_resp_10.keys,key_resp_10.rt,key_resp_10.duration,routine_26.started,text_12.started,key_resp_11.started,text_12.stopped,routine_26.stopped,key_resp_11.keys,key_resp_11.rt,key_resp_11.duration,routine_27.started,text_13.started,key_resp_12.started,routine_27.stopped,key_resp_12.keys,key_resp_12.rt,key_resp_12.duration,routine_10.started,image_4.started,routine_10.stopped,routine_11.started,text.started,text.stopped,routine_11.stopped,routine_12.started,image_5.started,key_resp_2.started,routine_12.stopped,key_resp_2.keys,key_resp_2.corr,key_resp_2.rt,key_resp_2.duration,image_5.stopped,participant,session,date,expName,psychopyVersion,frameRate,expStart,
,,,,,,,,,,,,,,,,,,,,,0.003169800000023315,0.006704000000013366,0.006704000000013366,6.07860340000002,space,6.058284999999955,None,,,,,,,,,,,,,,,,,,,,,,,,,,,,,,,,,,,,,,,,,,,,,,,,,,,,,,,,,,,,,,,,,,,,,,,,,,,,,,,,,,,,,,,,,,,,,,,,,,,,,,,,,,,,,,,,004,001,2023-11-11_13h42.51.152,untitled,2023.2.2,60.14845842508881,2023-11-11 13h43.11.080224 +0800,
,,,,,,,,,,,,,,,,,,,,,,,,,,,,6.078667400000086,6.093755200000032,6.093755200000032,39.095300000000066,space,32.99487450000004,None,,,,,,,,,,,,,,,,,,,,,,,,,,,,,,,,,,,,,,,,,,,,,,,,,,,,,,,,,,,,,,,,,,,,,,,,,,,,,,,,,,,,,,,,,,,,,,,,,,,,,,,,,004,001,2023-11-11_13h42.51.152,untitled,2023.2.2,60.14845842508881,2023-11-11 13h43.11.080224 +0800,
2,test/leftstar.PNG,left,0,0,0,4,,,,,,,,,,,,,39.268532100000016,,,,,,,,,,,,,,,,39.104402200000095,39.268532100000016,39.611230800000044,39.611255400000005,40.11048500000004,40.66978330000006,40.39467680000007,40.39470080000001,41.723065800000086,41.723065800000086,42.52696480000009,42.6958681000001,left,0.9570593999999346,None,,,,,,,,,,,,,,,,,,,,,,,,,,,,,,,,,,,,,,,,,,,,,,,,,,,,,,,,,,,,,,,,,,,,,,,,,,,,,,,,,,,,,,,,,,004,001,2023-11-11_13h42.51.152,untitled,2023.2.2,60.14845842508881,2023-11-11 13h43.11.080224 +0800,
8,test/rightstar.PNG,space,0,1,1,1,,,,,,,,,,,,,42.759123300000056,,,,,,,,,,,,,,,,42.69713090000005,42.759123300000056,43.21112430000005,43.211164300000064,43.710354900000084,44.12392399999999,43.99501250000003,43.99504000000002,45.31235000000004,45.31235000000004,,45.37927339999999,space,0.052200500000026295,None,,,,,,,,,,,,,,,,,,,,,,,,,,,,,,,,,,,,,,,,,,,,,,,,,,,,,,,,,,,,,,,,,,,,,,,,,,,,,,,,,,,,,,,,,,004,001,2023-11-11_13h42.51.152,untitled,2023.2.2,60.14845842508881,2023-11-11 13h43.11.080224 +0800,
8,test/rightstar.PNG,space,0,2,2,5,,,,,,,,,,,,,45.437760000000026,,,,,,,,,,,,,,,,45.38026190000005,45.437760000000026,45.89450670000008,45.894529600000055,46.393674600000054,46.79791470000009,46.67806000000007,46.678091100000074,47.99620809999999,47.99620809999999,,48.21230830000002,space,0.20020629999999073,None,,,,,,,,,,,,,,,,,,,,,,,,,,,,,,,,,,,,,,,,,,,,,,,,,,,,,,,,,,,,,,,,,,,,,,,,,,,,,,,,,,,,,,,,,,004,001,2023-11-11_13h42.51.152,untitled,2023.2.2,60.14845842508881,2023-11-11 13h43.11.080224 +0800,
1,test/leftstar.PNG,left,0,3,3,0,,,,,,,,,,,,,48.26517369999999,,,,,,,,,,,,,,,,48.21316740000009,48.26517369999999,48.727555499999994,48.72757640000009,49.22693780000009,49.63687870000001,49.51166280000007,49.51168670000004,50.8291385,50.8291385,51.6436688,51.69509100000005,left,0.8596241000000191,None,,,,,,,,,,,,,,,,,,,,,,,,,,,,,,,,,,,,,,,,,,,,,,,,,,,,,,,,,,,,,,,,,,,,,,,,,,,,,,,,,,,,,,,,,,004,001,2023-11-11_13h42.51.152,untitled,2023.2.2,60.14845842508881,2023-11-11 13h43.11.080224 +0800,
9,test/rightstar.PNG,space,0,4,4,3,,,,,,,,,,,,,51.75669149999999,,,,,,,,,,,,,,,,51.69605320000005,51.75669149999999,52.211199100000044,52.21125790000008,52.7101371,53.14314999999999,52.99489940000001,52.99493600000005,54.3127508,54.3127508,55.127136000000064,71.2118508000001,space,16.886361899999997,None,,,,,,,,,,,,,,,,,,,,,,,,,,,,,,,,,,,,,,,,,,,,,,,,,,,,,,,,,,,,,,,,,,,,,,,,,,,,,,,,,,,,,,,,,,004,001,2023-11-11_13h42.51.152,untitled,2023.2.2,60.14845842508881,2023-11-11 13h43.11.080224 +0800,
1,test/blank.PNG,space,0,5,5,2,,,,,,,,,,,,,71.34697490000008,,,,,,,,,,,,,,,,71.2127696,71.34697490000008,71.72804210000004,71.72808090000001,72.22710110000003,72.65738510000006,72.51187800000002,72.5119082,73.82835580000005,73.82835580000005,74.62683460000005,81.77876140000001,space,7.945138000000043,None,,,,,,,,,,,,,,,,,,,,,,,,,,,,,,,,,,,,,,,,,,,,,,,,,,,,,,,,,,,,,,,,,,,,,,,,,,,,,,,,,,,,,,,,,,004,001,2023-11-11_13h42.51.152,untitled,2023.2.2,60.14845842508881,2023-11-11 13h43.11.080224 +0800,
,,,,,,,,,,,,,,,,,,,,,,,,,,,,,,,,,,,,,,,,,,,,,,,,,,81.77945140000008,81.79350380000005,81.79350380000005,103.44518360000006,space,21.63540839999996,None,,,,,,,,,,,,,,,,,,,,,,,,,,,,,,,,,,,,,,,,,,,,,,,,,,,,,,,,,,,,,,,,,,,,,,,,,,,,,,,,,,,004,001,2023-11-11_13h42.51.152,untitled,2023.2.2,60.14845842508881,2023-11-11 13h43.11.080224 +0800,
,,,,,,,,,,,,,,,,,,,,,,,,,,,,,,,,,,,,,,,,,,,,,,,,,,,,,,,,,103.44524060000003,103.46027920000006,103.46027920000006,109.04663100000005,space,5.573766599999999,None,,,,,,,,,,,,,,,,,,,,,,,,,,,,,,,,,,,,,,,,,,,,,,,,,,,,,,,,,,,,,,,,,,,,,,,,,,,,004,001,2023-11-11_13h42.51.152,untitled,2023.2.2,60.14845842508881,2023-11-11 13h43.11.080224 +0800,
8,condition_1/rightstar.PNG,space,,,,,0,0,0,23,,,,,,,,,109.1364797,,,,,,,,,,,,,,,,,,,,,,,,,,,,,,,,,,,,,,,,,,,,,109.06130030000008,109.1364797,109.56104390000007,109.56106640000007,110.0605799,110.61116790000005,110.3446265,110.34465190000003,111.6723121,111.6723121,112.47700570000006,112.97900320000008,space,1,1.301193200000057,None,,,,,,,,,,,,,,,,,,,,,,,,,,,,,,,,,,,,,,,,,,,,,,,,,,,,,,,,,,,,004,001,2023-11-11_13h42.51.152,untitled,2023.2.2,60.14845842508881,2023-11-11 13h43.11.080224 +0800,
1,condition_1/rightstar.PNG,right,,,,,0,1,1,21,,,,,,,,,113.0351991,,,,,,,,,,,,,,,,,,,,,,,,,,,,,,,,,,,,,,,,,,,,,112.98070900000005,113.0351991,113.4945431000001,113.49457360000008,113.99353680000002,114.41188,114.27856919999999,114.27860120000003,115.59562249999999,115.59562249999999,116.41039450000005,116.47892550000006,right,1,0.876115200000072,None,,,,,,,,,,,,,,,,,,,,,,,,,,,,,,,,,,,,,,,,,,,,,,,,,,,,,,,,,,,,004,001,2023-11-11_13h42.51.152,untitled,2023.2.2,60.14845842508881,2023-11-11 13h43.11.080224 +0800,
1,condition_1/blank.PNG,space,,,,,0,2,2,8,,,,,,,,,116.53743540000005,,,,,,,,,,,,,,,,,,,,,,,,,,,,,,,,,,,,,,,,,,,,,116.48005920000003,116.53743540000005,116.99444570000003,116.99446820000003,117.49406840000006,117.93423400000006,117.77789270000005,117.777917,119.09491280000009,119.09491280000009,,119.54569270000002,space,1,0.43479760000002443,None,,,,,,,,,,,,,,,,,,,,,,,,,,,,,,,,,,,,,,,,,,,,,,,,,,,,,,,,,,,,004,001,2023-11-11_13h42.51.152,untitled,2023.2.2,60.14845842508881,2023-11-11 13h43.11.080224 +0800,
9,condition_1/leftstar.PNG,space,,,,,0,3,3,24,,,,,,,,,119.61721420000003,,,,,,,,,,,,,,,,,,,,,,,,,,,,,,,,,,,,,,,,,,,,,119.54677550000008,119.61721420000003,120.06096000000002,120.06098259999999,120.5602242,121.13742390000004,120.8446044000001,120.84462910000002,122.16236300000003,122.16236300000003,,122.56259390000002,left,0,0.38925529999994524,None,,,,,,,,,,,,,,,,,,,,,,,,,,,,,,,,,,,,,,,,,,,,,,,,,,,,,,,,,,,,004,001,2023-11-11_13h42.51.152,untitled,2023.2.2,60.14845842508881,2023-11-11 13h43.11.080224 +0800,
2,condition_1/blank.PNG,space,,,,,0,4,4,20,,,,,,,,,122.62023380000005,,,,,,,,,,,,,,,,,,,,,,,,,,,,,,,,,,,,,,,,,,,,,122.56364960000008,122.62023380000005,123.07790110000008,123.07792260000008,123.5772052000001,123.94333870000003,123.86158020000005,123.86161000000004,125.17816400000004,125.17816400000004,125.97693350000009,126.3785855000001,space,1,1.1936940000000504,None,,,,,,,,,,,,,,,,,,,,,,,,,,,,,,,,,,,,,,,,,,,,,,,,,,,,,,,,,,,,004,001,2023-11-11_13h42.51.152,untitled,2023.2.2,60.14845842508881,2023-11-11 13h43.11.080224 +0800,
1,condition_1/leftstar.PNG,left,,,,,0,5,5,0,,,,,,,,,126.4342977,,,,,,,,,,,,,,,,,,,,,,,,,,,,,,,,,,,,,,,,,,,,,126.37965370000006,126.4342977,126.89433600000007,126.89436020000005,127.39372130000004,127.91781400000002,127.6782197,127.67825090000008,128.9959775000001,128.9959775000001,129.8102838000001,129.86256390000005,left,1,0.8611594000000196,None,,,,,,,,,,,,,,,,,,,,,,,,,,,,,,,,,,,,,,,,,,,,,,,,,,,,,,,,,,,,004,001,2023-11-11_13h42.51.152,untitled,2023.2.2,60.14845842508881,2023-11-11 13h43.11.080224 +0800,
8,condition_1/blank.PNG,space,,,,,0,6,6,10,,,,,,,,,129.92182330000003,,,,,,,,,,,,,,,,,,,,,,,,,,,,,,,,,,,,,,,,,,,,,129.8639866000001,129.92182330000003,130.37772000000007,130.37774480000007,130.8770849,131.24739970000007,131.16136530000006,131.16142430000002,132.47823770000002,132.47823770000002,133.2769929000001,134.7121634,space,1,2.221230300000002,None,,,,,,,,,,,,,,,,,,,,,,,,,,,,,,,,,,,,,,,,,,,,,,,,,,,,,,,,,,,,004,001,2023-11-11_13h42.51.152,untitled,2023.2.2,60.14845842508881,2023-11-11 13h43.11.080224 +0800,
1,condition_1/rightstar.PNG,right,,,,,0,7,7,12,,,,,,,,,134.7713271,,,,,,,,,,,,,,,,,,,,,,,,,,,,,,,,,,,,,,,,,,,,,134.7132534000001,134.7713271,135.2278821,135.22790350000002,135.72697470000003,136.25334840000005,136.0110055,136.0110284000001,137.32955330000004,137.32955330000004,138.14365280000004,138.4626611,right,1,1.1267526000000316,None,,,,,,,,,,,,,,,,,,,,,,,,,,,,,,,,,,,,,,,,,,,,,,,,,,,,,,,,,,,,004,001,2023-11-11_13h42.51.152,untitled,2023.2.2,60.14845842508881,2023-11-11 13h43.11.080224 +0800,
2,condition_1/rightstar.PNG,left,,,,,0,8,8,5,,,,,,,,,138.5188151000001,,,,,,,,,,,,,,,,,,,,,,,,,,,,,,,,,,,,,,,,,,,,,138.46378600000003,138.5188151000001,138.97762870000008,138.97765230000005,139.4769973,139.90169960000003,139.76173800000004,139.7617705,141.07971410000005,141.07971410000005,141.89368520000005,142.14460300000007,right,0,1.0488067,None,,,,,,,,,,,,,,,,,,,,,,,,,,,,,,,,,,,,,,,,,,,,,,,,,,,,,,,,,,,,004,001,2023-11-11_13h42.51.152,untitled,2023.2.2,60.14845842508881,2023-11-11 13h43.11.080224 +0800,
9,condition_1/blank.PNG,space,,,,,0,9,9,11,,,,,,,,,142.2234605000001,,,,,,,,,,,,,,,,,,,,,,,,,,,,,,,,,,,,,,,,,,,,,142.1453792000001,142.2234605000001,142.66128260000005,142.6613125,143.1602401,143.54451840000002,143.44527690000007,143.44530870000006,144.76144650000003,144.76144650000003,,145.2298813,space,1,0.450887600000101,None,,,,,,,,,,,,,,,,,,,,,,,,,,,,,,,,,,,,,,,,,,,,,,,,,,,,,,,,,,,,004,001,2023-11-11_13h42.51.152,untitled,2023.2.2,60.14845842508881,2023-11-11 13h43.11.080224 +0800,
2,condition_1/blank.PNG,space,,,,,0,10,10,9,,,,,,,,,145.28417420000005,,,,,,,,,,,,,,,,,,,,,,,,,,,,,,,,,,,,,,,,,,,,,145.23092860000008,145.28417420000005,145.74445330000003,145.74448840000002,146.24397550000003,146.57220670000004,146.5281675,146.52820310000004,147.8449438,147.8449438,,148.5295602,space,1,0.6832887000000483,None,,,,,,,,,,,,,,,,,,,,,,,,,,,,,,,,,,,,,,,,,,,,,,,,,,,,,,,,,,,,004,001,2023-11-11_13h42.51.152,untitled,2023.2.2,60.14845842508881,2023-11-11 13h43.11.080224 +0800,
9,condition_1/leftstar.PNG,space,,,,,0,11,11,3,,,,,,,,,148.5839502,,,,,,,,,,,,,,,,,,,,,,,,,,,,,,,,,,,,,,,,,,,,,148.53066650000005,148.5839502,149.04455010000004,149.04460210000002,149.54371630000003,150.10330810000005,149.8278712,149.82789560000003,151.14618080000002,151.14618080000002,,151.4465312000001,space,1,0.29116080000005695,None,,,,,,,,,,,,,,,,,,,,,,,,,,,,,,,,,,,,,,,,,,,,,,,,,,,,,,,,,,,,004,001,2023-11-11_13h42.51.152,untitled,2023.2.2,60.14845842508881,2023-11-11 13h43.11.080224 +0800,
2,condition_1/leftstar.PNG,left,,,,,0,12,12,17,,,,,,,,,151.50177250000002,,,,,,,,,,,,,,,,,,,,,,,,,,,,,,,,,,,,,,,,,,,,,151.4476327000001,151.50177250000002,151.96146350000004,151.96148570000003,152.4604022000001,152.86246830000005,152.74527220000004,152.74530500000003,154.06265040000005,154.06265040000005,,154.52942100000007,left,1,0.45329770000000735,None,,,,,,,,,,,,,,,,,,,,,,,,,,,,,,,,,,,,,,,,,,,,,,,,,,,,,,,,,,,,004,001,2023-11-11_13h42.51.152,untitled,2023.2.2,60.14845842508881,2023-11-11 13h43.11.080224 +0800,
1,condition_1/leftstar.PNG,left,,,,,0,13,13,16,,,,,,,,,154.58372450000002,,,,,,,,,,,,,,,,,,,,,,,,,,,,,,,,,,,,,,,,,,,,,154.5306184000001,154.58372450000002,155.0446118000001,155.0446479000001,155.5437359,155.95400860000007,155.8277028,155.82772810000006,157.1459016,157.1459016,,157.71275330000003,left,1,0.5504352000000381,None,,,,,,,,,,,,,,,,,,,,,,,,,,,,,,,,,,,,,,,,,,,,,,,,,,,,,,,,,,,,004,001,2023-11-11_13h42.51.152,untitled,2023.2.2,60.14845842508881,2023-11-11 13h43.11.080224 +0800,
2,condition_1/rightstar.PNG,right,,,,,0,14,14,13,,,,,,,,,157.8124461,,,,,,,,,,,,,,,,,,,,,,,,,,,,,,,,,,,,,,,,,,,,,157.7138232000001,157.8124461,158.22775940000008,158.2278013,158.72748250000006,159.19250540000007,159.0110869,159.01110730000005,160.3304948,160.3304948,,160.9793734000001,right,1,0.6331049000000348,None,,,,,,,,,,,,,,,,,,,,,,,,,,,,,,,,,,,,,,,,,,,,,,,,,,,,,,,,,,,,004,001,2023-11-11_13h42.51.152,untitled,2023.2.2,60.14845842508881,2023-11-11 13h43.11.080224 +0800,
8,condition_1/leftstar.PNG,space,,,,,0,15,15,2,,,,,,,,,161.0766480000001,,,,,,,,,,,,,,,,,,,,,,,,,,,,,,,,,,,,,,,,,,,,,160.98042780000003,161.0766480000001,161.49445320000007,161.4944941,161.9938843,162.4302183000001,162.27849020000008,162.2785229000001,163.59555890000001,163.59555890000001,,163.84569710000005,space,1,0.23504570000000058,None,,,,,,,,,,,,,,,,,,,,,,,,,,,,,,,,,,,,,,,,,,,,,,,,,,,,,,,,,,,,004,001,2023-11-11_13h42.51.152,untitled,2023.2.2,60.14845842508881,2023-11-11 13h43.11.080224 +0800,
8,condition_1/leftstar.PNG,space,,,,,0,16,16,18,,,,,,,,,163.91367880000007,,,,,,,,,,,,,,,,,,,,,,,,,,,,,,,,,,,,,,,,,,,,,163.84671330000003,163.91367880000007,164.36094880000007,164.36097040000004,164.8601453,165.2665081,165.14434600000004,165.14437050000004,166.46238300000005,166.46238300000005,,166.7454669,space,1,0.28097379999996974,None,,,,,,,,,,,,,,,,,,,,,,,,,,,,,,,,,,,,,,,,,,,,,,,,,,,,,,,,,,,,004,001,2023-11-11_13h42.51.152,untitled,2023.2.2,60.14845842508881,2023-11-11 13h43.11.080224 +0800,
8,condition_1/rightstar.PNG,space,,,,,0,17,17,6,,,,,,,,,166.80017770000006,,,,,,,,,,,,,,,,,,,,,,,,,,,,,,,,,,,,,,,,,,,,,166.74631140000008,166.80017770000006,167.26094,167.26098460000003,167.76025830000003,168.1658291,168.04474800000003,168.04477380000003,169.36230310000008,169.36230310000008,,169.7125695000001,space,1,0.3345654999999397,None,,,,,,,,,,,,,,,,,,,,,,,,,,,,,,,,,,,,,,,,,,,,,,,,,,,,,,,,,,,,004,001,2023-11-11_13h42.51.152,untitled,2023.2.2,60.14845842508881,2023-11-11 13h43.11.080224 +0800,
8,condition_1/rightstar.PNG,space,,,,,0,18,18,14,,,,,,,,,169.7713887,,,,,,,,,,,,,,,,,,,,,,,,,,,,,,,,,,,,,,,,,,,,,169.71360000000004,169.7713887,170.22790440000006,170.22793160000003,170.72698420000006,171.15170380000006,171.01169790000006,171.0117236000001,172.32905700000003,172.32905700000003,,172.62922420000007,space,1,0.28472499999998035,None,,,,,,,,,,,,,,,,,,,,,,,,,,,,,,,,,,,,,,,,,,,,,,,,,,,,,,,,,,,,004,001,2023-11-11_13h42.51.152,untitled,2023.2.2,60.14845842508881,2023-11-11 13h43.11.080224 +0800,
9,condition_1/rightstar.PNG,space,,,,,0,19,19,7,,,,,,,,,172.68474000000003,,,,,,,,,,,,,,,,,,,,,,,,,,,,,,,,,,,,,,,,,,,,,172.6303372000001,172.68474000000003,173.14463460000002,173.14465810000002,173.64364540000008,174.06370900000002,173.92766310000002,173.92768020000005,175.24573380000004,175.24573380000004,,175.56353250000006,space,1,0.3160302999999658,None,,,,,,,,,,,,,,,,,,,,,,,,,,,,,,,,,,,,,,,,,,,,,,,,,,,,,,,,,,,,004,001,2023-11-11_13h42.51.152,untitled,2023.2.2,60.14845842508881,2023-11-11 13h43.11.080224 +0800,
9,condition_1/rightstar.PNG,space,,,,,0,20,20,15,,,,,,,,,175.6202611,,,,,,,,,,,,,,,,,,,,,,,,,,,,,,,,,,,,,,,,,,,,,175.5645819,175.6202611,176.0776872,176.07771990000003,176.5770807,176.98451210000007,176.86202780000008,176.86206030000005,178.1789136000001,178.1789136000001,,178.4464769,space,1,0.2648406000000705,None,,,,,,,,,,,,,,,,,,,,,,,,,,,,,,,,,,,,,,,,,,,,,,,,,,,,,,,,,,,,004,001,2023-11-11_13h42.51.152,untitled,2023.2.2,60.14845842508881,2023-11-11 13h43.11.080224 +0800,
9,condition_1/leftstar.PNG,space,,,,,0,21,21,19,,,,,,,,,178.50577570000007,,,,,,,,,,,,,,,,,,,,,,,,,,,,,,,,,,,,,,,,,,,,,178.4473862000001,178.50577570000007,178.9610097000001,178.96103190000008,179.4602784,179.86732670000004,179.74421230000007,179.7442311000001,181.0625668,181.0625668,,181.3951830000001,space,1,0.32415780000008,None,,,,,,,,,,,,,,,,,,,,,,,,,,,,,,,,,,,,,,,,,,,,,,,,,,,,,,,,,,,,004,001,2023-11-11_13h42.51.152,untitled,2023.2.2,60.14845842508881,2023-11-11 13h43.11.080224 +0800,
1,condition_1/rightstar.PNG,right,,,,,0,22,22,4,,,,,,,,,181.4512473000001,,,,,,,,,,,,,,,,,,,,,,,,,,,,,,,,,,,,,,,,,,,,,181.39571180000007,181.4512473000001,181.9110594,181.91108910000003,182.4103282000001,182.80438000000004,182.69424390000006,182.69426270000008,184.01230800000008,184.01230800000008,,184.39531680000005,right,1,0.37899289999995744,None,,,,,,,,,,,,,,,,,,,,,,,,,,,,,,,,,,,,,,,,,,,,,,,,,,,,,,,,,,,,004,001,2023-11-11_13h42.51.152,untitled,2023.2.2,60.14845842508881,2023-11-11 13h43.11.080224 +0800,
2,condition_1/leftstar.PNG,left,,,,,0,23,23,1,,,,,,,,,184.44517940000003,,,,,,,,,,,,,,,,,,,,,,,,,,,,,,,,,,,,,,,,,,,,,184.39641330000006,184.44517940000003,184.91125810000005,184.9112857,185.41015260000006,185.81421050000006,185.6943857,185.6944039,187.01242620000005,187.01242620000005,,187.4454174,left,1,0.42213390000006257,None,,,,,,,,,,,,,,,,,,,,,,,,,,,,,,,,,,,,,,,,,,,,,,,,,,,,,,,,,,,,004,001,2023-11-11_13h42.51.152,untitled,2023.2.2,60.14845842508881,2023-11-11 13h43.11.080224 +0800,
2,condition_1/leftstar.PNG,left,,,,,0,24,24,22,,,,,,,,,187.50093030000005,,,,,,,,,,,,,,,,,,,,,,,,,,,,,,,,,,,,,,,,,,,,,187.44587230000002,187.50093030000005,187.96091610000008,187.96093300000007,188.4601772000001,188.88126120000004,188.7443148000001,188.74433180000005,190.06236280000007,190.06236280000007,,190.42941110000004,left,1,0.3643385999999964,None,,,,,,,,,,,,,,,,,,,,,,,,,,,,,,,,,,,,,,,,,,,,,,,,,,,,,,,,,,,,004,001,2023-11-11_13h42.51.152,untitled,2023.2.2,60.14845842508881,2023-11-11 13h43.11.080224 +0800,
1,condition_1/blank.PNG,space,,,,,1,0,25,8,,,,,,,,,190.49373300000002,,,,,,,,,,,,,,,,,,,,,,,,,,,,,,,,,,,,,,,,,,,,,190.4300704000001,190.49373300000002,190.94423860000006,190.94428010000001,191.44383700000003,191.86911370000007,191.7276518,191.72766550000006,193.0447428,193.0447428,,193.4788406,space,1,0.4236776000000191,None,,,,,,,,,,,,,,,,,,,,,,,,,,,,,,,,,,,,,,,,,,,,,,,,,,,,,,,,,,,,004,001,2023-11-11_13h42.51.152,untitled,2023.2.2,60.14845842508881,2023-11-11 13h43.11.080224 +0800,
9,condition_1/leftstar.PNG,space,,,,,1,1,26,24,,,,,,,,,193.53645690000008,,,,,,,,,,,,,,,,,,,,,,,,,,,,,,,,,,,,,,,,,,,,,193.4794084,193.53645690000008,193.9941867,193.99420020000002,194.49342590000003,195.04640110000003,194.7777582,194.77777930000002,196.0955169,196.0955169,,196.37870840000005,space,1,0.27647109999998065,None,,,,,,,,,,,,,,,,,,,,,,,,,,,,,,,,,,,,,,,,,,,,,,,,,,,,,,,,,,,,004,001,2023-11-11_13h42.51.152,untitled,2023.2.2,60.14845842508881,2023-11-11 13h43.11.080224 +0800,
1,condition_1/rightstar.PNG,right,,,,,1,2,27,21,,,,,,,,,196.43205020000005,,,,,,,,,,,,,,,,,,,,,,,,,,,,,,,,,,,,,,,,,,,,,196.3791046,196.43205020000005,196.8943862000001,196.8944063,197.39357170000005,197.80750320000004,197.6775897,197.6776086000001,198.99624100000005,198.99624100000005,,199.04516350000006,space,0,0.03982439999992948,None,,,,,,,,,,,,,,,,,,,,,,,,,,,,,,,,,,,,,,,,,,,,,,,,,,,,,,,,,,,,004,001,2023-11-11_13h42.51.152,untitled,2023.2.2,60.14845842508881,2023-11-11 13h43.11.080224 +0800,
2,condition_1/leftstar.PNG,left,,,,,1,3,28,17,,,,,,,,,199.10604380000007,,,,,,,,,,,,,,,,,,,,,,,,,,,,,,,,,,,,,,,,,,,,,199.0458301,199.10604380000007,199.56122490000007,199.56126270000004,200.0603867000001,200.46261530000004,200.3438989,200.3439095,201.66220750000002,201.66220750000002,,202.16190270000004,left,1,0.4939989000000651,None,,,,,,,,,,,,,,,,,,,,,,,,,,,,,,,,,,,,,,,,,,,,,,,,,,,,,,,,,,,,004,001,2023-11-11_13h42.51.152,untitled,2023.2.2,60.14845842508881,2023-11-11 13h43.11.080224 +0800,
2,condition_1/blank.PNG,space,,,,,1,4,29,20,,,,,,,,,202.22982810000008,,,,,,,,,,,,,,,,,,,,,,,,,,,,,,,,,,,,,,,,,,,,,202.1629038000001,202.22982810000008,202.6781923000001,202.6782091,203.17689270000005,203.5456888,203.46122490000005,203.46125540000003,204.77832790000002,204.77832790000002,,205.29563410000003,space,1,0.5051832999999988,None,,,,,,,,,,,,,,,,,,,,,,,,,,,,,,,,,,,,,,,,,,,,,,,,,,,,,,,,,,,,004,001,2023-11-11_13h42.51.152,untitled,2023.2.2,60.14845842508881,2023-11-11 13h43.11.080224 +0800,
1,condition_1/rightstar.PNG,right,,,,,1,5,30,4,,,,,,,,,205.36137170000006,,,,,,,,,,,,,,,,,,,,,,,,,,,,,,,,,,,,,,,,,,,,,205.29636700000003,205.36137170000006,205.8110905000001,205.81111350000003,206.31019720000006,206.90873350000004,206.5946606,206.59468450000008,207.91240570000002,207.91240570000002,,208.24610630000006,right,1,0.3266287999999804,None,,,,,,,,,,,,,,,,,,,,,,,,,,,,,,,,,,,,,,,,,,,,,,,,,,,,,,,,,,,,004,001,2023-11-11_13h42.51.152,untitled,2023.2.2,60.14845842508881,2023-11-11 13h43.11.080224 +0800,
8,condition_1/leftstar.PNG,space,,,,,1,6,31,2,,,,,,,,,208.3543469,,,,,,,,,,,,,,,,,,,,,,,,,,,,,,,,,,,,,,,,,,,,,208.2471058000001,208.3543469,208.7612484,208.76128010000002,209.26023210000005,209.6796803000001,209.5446482000001,209.5446747000001,210.86243990000003,210.86243990000003,,210.96257430000003,space,1,0.0961278999999422,None,,,,,,,,,,,,,,,,,,,,,,,,,,,,,,,,,,,,,,,,,,,,,,,,,,,,,,,,,,,,004,001,2023-11-11_13h42.51.152,untitled,2023.2.2,60.14845842508881,2023-11-11 13h43.11.080224 +0800,
9,condition_1/leftstar.PNG,space,,,,,1,7,32,19,,,,,,,,,211.0172007,,,,,,,,,,,,,,,,,,,,,,,,,,,,,,,,,,,,,,,,,,,,,210.9635565000001,211.0172007,211.47769700000003,211.47773660000007,211.9768392000001,212.40557230000002,212.26135110000007,212.261388,213.57900370000004,213.57900370000004,,213.8616134,space,1,0.265752300000031,None,,,,,,,,,,,,,,,,,,,,,,,,,,,,,,,,,,,,,,,,,,,,,,,,,,,,,,,,,,,,004,001,2023-11-11_13h42.51.152,untitled,2023.2.2,60.14845842508881,2023-11-11 13h43.11.080224 +0800,
1,condition_1/leftstar.PNG,left,,,,,1,8,33,16,,,,,,,,,213.91541970000003,,,,,,,,,,,,,,,,,,,,,,,,,,,,,,,,,,,,,,,,,,,,,213.86226390000002,213.91541970000003,214.37754870000003,214.3775697000001,214.87678160000007,215.28748130000008,215.16127800000004,215.1613046,216.47887500000002,216.47887500000002,,216.96154690000003,left,1,0.4751283999999032,None,,,,,,,,,,,,,,,,,,,,,,,,,,,,,,,,,,,,,,,,,,,,,,,,,,,,,,,,,,,,004,001,2023-11-11_13h42.51.152,untitled,2023.2.2,60.14845842508881,2023-11-11 13h43.11.080224 +0800,
1,condition_1/rightstar.PNG,right,,,,,1,9,34,12,,,,,,,,,217.06081430000006,,,,,,,,,,,,,,,,,,,,,,,,,,,,,,,,,,,,,,,,,,,,,216.9619824,217.06081430000006,217.4775882,217.47762280000006,217.97686700000008,218.43819170000006,218.26096630000006,218.26099090000002,219.5789287,219.5789287,,219.92886810000005,right,1,0.33951089999993656,None,,,,,,,,,,,,,,,,,,,,,,,,,,,,,,,,,,,,,,,,,,,,,,,,,,,,,,,,,,,,004,001,2023-11-11_13h42.51.152,untitled,2023.2.2,60.14845842508881,2023-11-11 13h43.11.080224 +0800,
8,condition_1/rightstar.PNG,space,,,,,1,10,35,14,,,,,,,,,219.9822901,,,,,,,,,,,,,,,,,,,,,,,,,,,,,,,,,,,,,,,,,,,,,219.92988860000003,219.9822901,220.44433370000002,220.44435050000004,220.94391810000002,221.3410212,221.22832700000004,221.2283599000001,222.5458139000001,222.5458139000001,,222.71332860000007,space,1,0.16525609999996504,None,,,,,,,,,,,,,,,,,,,,,,,,,,,,,,,,,,,,,,,,,,,,,,,,,,,,,,,,,,,,004,001,2023-11-11_13h42.51.152,untitled,2023.2.2,60.14845842508881,2023-11-11 13h43.11.080224 +0800,
2,condition_1/leftstar.PNG,left,,,,,1,11,36,1,,,,,,,,,222.77237360000004,,,,,,,,,,,,,,,,,,,,,,,,,,,,,,,,,,,,,,,,,,,,,222.71442090000005,222.77237360000004,223.2276276,223.22764270000005,223.7271307000001,224.13876100000004,224.01144550000004,224.01147750000007,225.32931680000002,225.32931680000002,,225.71326320000003,left,1,0.36888569999996434,None,,,,,,,,,,,,,,,,,,,,,,,,,,,,,,,,,,,,,,,,,,,,,,,,,,,,,,,,,,,,004,001,2023-11-11_13h42.51.152,untitled,2023.2.2,60.14845842508881,2023-11-11 13h43.11.080224 +0800,
8,condition_1/blank.PNG,space,,,,,1,12,37,10,,,,,,,,,225.77604040000006,,,,,,,,,,,,,,,,,,,,,,,,,,,,,,,,,,,,,,,,,,,,,225.71459620000007,225.77604040000006,226.22758250000004,226.22760630000005,226.72688700000003,227.14493130000005,227.0112686,227.01129980000007,228.32819140000004,228.32819140000004,,228.72960690000002,space,1,0.3932694000000083,None,,,,,,,,,,,,,,,,,,,,,,,,,,,,,,,,,,,,,,,,,,,,,,,,,,,,,,,,,,,,004,001,2023-11-11_13h42.51.152,untitled,2023.2.2,60.14845842508881,2023-11-11 13h43.11.080224 +0800,
8,condition_1/leftstar.PNG,space,,,,,1,13,38,18,,,,,,,,,228.78000340000006,,,,,,,,,,,,,,,,,,,,,,,,,,,,,,,,,,,,,,,,,,,,,228.73093360000007,228.78000340000006,229.24431900000002,229.24435690000007,229.74359260000006,230.2952457,230.0278465,230.02787280000007,231.3457972,231.3457972,,231.74634600000002,space,1,0.3904886999999917,None,,,,,,,,,,,,,,,,,,,,,,,,,,,,,,,,,,,,,,,,,,,,,,,,,,,,,,,,,,,,004,001,2023-11-11_13h42.51.152,untitled,2023.2.2,60.14845842508881,2023-11-11 13h43.11.080224 +0800,
9,condition_1/rightstar.PNG,space,,,,,1,14,39,15,,,,,,,,,231.80025550000005,,,,,,,,,,,,,,,,,,,,,,,,,,,,,,,,,,,,,,,,,,,,,231.74747360000003,231.80025550000005,232.26122810000004,232.261261,232.76038210000002,233.16218800000001,233.0448368000001,233.0448689000001,234.36260370000002,234.36260370000002,,234.59652390000008,space,1,0.22020200000008572,None,,,,,,,,,,,,,,,,,,,,,,,,,,,,,,,,,,,,,,,,,,,,,,,,,,,,,,,,,,,,004,001,2023-11-11_13h42.51.152,untitled,2023.2.2,60.14845842508881,2023-11-11 13h43.11.080224 +0800,
9,condition_1/blank.PNG,space,,,,,1,15,40,11,,,,,,,,,234.64820600000007,,,,,,,,,,,,,,,,,,,,,,,,,,,,,,,,,,,,,,,,,,,,,234.59772680000003,234.64820600000007,235.11109,235.11111190000008,235.61041340000008,235.97822240000005,235.89495410000006,235.8949784,237.21169970000005,237.21169970000005,238.01040640000008,238.51232860000005,space,1,1.2873360999999477,None,,,,,,,,,,,,,,,,,,,,,,,,,,,,,,,,,,,,,,,,,,,,,,,,,,,,,,,,,,,,004,001,2023-11-11_13h42.51.152,untitled,2023.2.2,60.14845842508881,2023-11-11 13h43.11.080224 +0800,
9,condition_1/leftstar.PNG,space,,,,,1,16,41,3,,,,,,,,,238.5677137,,,,,,,,,,,,,,,,,,,,,,,,,,,,,,,,,,,,,,,,,,,,,238.5134504,238.5677137,239.0277099,239.0277470000001,239.52709270000003,240.04591190000008,239.81164520000004,239.81167720000008,241.12917220000008,241.12917220000008,,241.42974560000005,space,1,0.29815929999995205,None,,,,,,,,,,,,,,,,,,,,,,,,,,,,,,,,,,,,,,,,,,,,,,,,,,,,,,,,,,,,004,001,2023-11-11_13h42.51.152,untitled,2023.2.2,60.14845842508881,2023-11-11 13h43.11.080224 +0800,
8,condition_1/rightstar.PNG,space,,,,,1,17,42,23,,,,,,,,,241.4960168,,,,,,,,,,,,,,,,,,,,,,,,,,,,,,,,,,,,,,,,,,,,,241.4308661,241.4960168,241.94465300000002,241.94468960000006,242.44423690000008,242.84249810000006,242.72876280000003,242.72881960000007,244.04586730000005,244.04586730000005,,244.34594830000003,space,1,0.2899423999999726,None,,,,,,,,,,,,,,,,,,,,,,,,,,,,,,,,,,,,,,,,,,,,,,,,,,,,,,,,,,,,004,001,2023-11-11_13h42.51.152,untitled,2023.2.2,60.14845842508881,2023-11-11 13h43.11.080224 +0800,
9,condition_1/rightstar.PNG,space,,,,,1,18,43,7,,,,,,,,,244.4052475000001,,,,,,,,,,,,,,,,,,,,,,,,,,,,,,,,,,,,,,,,,,,,,244.34708020000005,244.4052475000001,244.8615489,244.8615727,245.36041610000007,245.77368550000006,245.64505480000003,245.6450801000001,246.96256960000005,246.96256960000005,,247.312728,space,1,0.3417233000000124,None,,,,,,,,,,,,,,,,,,,,,,,,,,,,,,,,,,,,,,,,,,,,,,,,,,,,,,,,,,,,004,001,2023-11-11_13h42.51.152,untitled,2023.2.2,60.14845842508881,2023-11-11 13h43.11.080224 +0800,
2,condition_1/blank.PNG,space,,,,,1,19,44,9,,,,,,,,,247.36306030000003,,,,,,,,,,,,,,,,,,,,,,,,,,,,,,,,,,,,,,,,,,,,,247.31383820000008,247.36306030000003,247.82768240000007,247.82770670000002,248.32735490000005,248.69192210000006,248.61126620000005,248.61129160000007,249.92811890000007,249.92811890000007,,250.69683970000006,space,1,0.7652828000000227,None,,,,,,,,,,,,,,,,,,,,,,,,,,,,,,,,,,,,,,,,,,,,,,,,,,,,,,,,,,,,004,001,2023-11-11_13h42.51.152,untitled,2023.2.2,60.14845842508881,2023-11-11 13h43.11.080224 +0800,
2,condition_1/rightstar.PNG,right,,,,,1,20,45,13,,,,,,,,,250.7483191,,,,,,,,,,,,,,,,,,,,,,,,,,,,,,,,,,,,,,,,,,,,,250.6979702000001,250.7483191,251.21108190000007,251.2111159000001,251.71045650000008,252.23430040000005,251.9943906000001,251.99441530000001,253.31227940000008,253.31227940000008,,253.6965566,right,1,0.37745649999999387,None,,,,,,,,,,,,,,,,,,,,,,,,,,,,,,,,,,,,,,,,,,,,,,,,,,,,,,,,,,,,004,001,2023-11-11_13h42.51.152,untitled,2023.2.2,60.14845842508881,2023-11-11 13h43.11.080224 +0800,
2,condition_1/leftstar.PNG,left,,,,,1,21,46,22,,,,,,,,,253.7487976,,,,,,,,,,,,,,,,,,,,,,,,,,,,,,,,,,,,,,,,,,,,,253.69753160000005,253.7487976,254.2110120000001,254.21103570000002,254.71029210000006,255.11827540000002,254.99506470000006,254.99509420000004,256.31267390000005,256.31267390000005,,256.661689,left,1,0.33268279999992956,None,,,,,,,,,,,,,,,,,,,,,,,,,,,,,,,,,,,,,,,,,,,,,,,,,,,,,,,,,,,,004,001,2023-11-11_13h42.51.152,untitled,2023.2.2,60.14845842508881,2023-11-11 13h43.11.080224 +0800,
8,condition_1/rightstar.PNG,space,,,,,1,22,47,6,,,,,,,,,256.7123675,,,,,,,,,,,,,,,,,,,,,,,,,,,,,,,,,,,,,,,,,,,,,256.6621311,256.7123675,257.17779010000004,257.1778313000001,257.6769918,258.08739090000006,257.96188670000004,257.9619172,259.2790570000001,259.2790570000001,,259.4792966,space,1,0.19482749999997395,None,,,,,,,,,,,,,,,,,,,,,,,,,,,,,,,,,,,,,,,,,,,,,,,,,,,,,,,,,,,,004,001,2023-11-11_13h42.51.152,untitled,2023.2.2,60.14845842508881,2023-11-11 13h43.11.080224 +0800,
2,condition_1/rightstar.PNG,left,,,,,1,23,48,5,,,,,,,,,259.5306154000001,,,,,,,,,,,,,,,,,,,,,,,,,,,,,,,,,,,,,,,,,,,,,259.48036980000006,259.5306154000001,259.99436990000004,259.9943941,260.49359230000005,260.90111720000004,260.77782250000007,260.77784670000005,262.09586,262.09586,,262.446462,right,0,0.3452168999999685,None,,,,,,,,,,,,,,,,,,,,,,,,,,,,,,,,,,,,,,,,,,,,,,,,,,,,,,,,,,,,004,001,2023-11-11_13h42.51.152,untitled,2023.2.2,60.14845842508881,2023-11-11 13h43.11.080224 +0800,
1,condition_1/leftstar.PNG,left,,,,,1,24,49,0,,,,,,,,,262.498151,,,,,,,,,,,,,,,,,,,,,,,,,,,,,,,,,,,,,,,,,,,,,262.44757530000004,262.498151,262.9609249,262.9609478000001,263.4607058,263.87317340000004,263.74477060000004,263.7448021,265.0622806,265.0622806,,265.41299130000004,left,1,0.3407296000000315,None,,,,,,,,,,,,,,,,,,,,,,,,,,,,,,,,,,,,,,,,,,,,,,,,,,,,,,,,,,,,004,001,2023-11-11_13h42.51.152,untitled,2023.2.2,60.14845842508881,2023-11-11 13h43.11.080224 +0800,
,,,,,,,,,,,,,,,,,,,,,,,,,,,,,,,,,,,,,,,,,,,,,,,,,,,,,,,,,,,,,,,,,,,,,,,,,,,,,,,,265.4139395000001,265.427005,265.427005,313.3448624,space,47.90205549999996,None,,,,,,,,,,,,,,,,,,,,,,,,,,,,,,,,,,,,,,,,,,,,,,,,,,,,,004,001,2023-11-11_13h42.51.152,untitled,2023.2.2,60.14845842508881,2023-11-11 13h43.11.080224 +0800,
,,,,,,,,,,,,,,,,,,,,,,,,,,,,,,,,,,,,,,,,,,,,,,,,,,,,,,,,,,,,,,,,,,,,,,,,,,,,,,,,,,,,,,,313.34489499999995,313.3602310000001,313.3602310000001,325.4791547,space,12.103515199999947,None,,,,,,,,,,,,,,,,,,,,,,,,,,,,,,,,,,,,,,,,,,,,,,004,001,2023-11-11_13h42.51.152,untitled,2023.2.2,60.14845842508881,2023-11-11 13h43.11.080224 +0800,
8,test2/rightstar.PNG,right,,,,,,,,,0,0,0,1,,,,,325.61633270000016,,,,,,,,,,,,,,,,,,,,,,,,,,,,,,,,,,,,,,,,,,,,,,,,,,,,,,,,,,,,,,,,,,,,,,,,,,,325.5002092,325.61633270000016,325.9942453000001,325.99427979999996,326.49357050000003,326.99922760000004,326.77806710000004,326.778096,328.10705630000007,328.10705630000007,328.64549090000014,right,0.5232295000000704,None,,,,,,,,,,,,,,,,,,,,,,,,,,,,,,,,004,001,2023-11-11_13h42.51.152,untitled,2023.2.2,60.14845842508881,2023-11-11 13h43.11.080224 +0800,
8,test2/leftstar.PNG,left,,,,,,,,,0,1,1,5,,,,,328.6931115,,,,,,,,,,,,,,,,,,,,,,,,,,,,,,,,,,,,,,,,,,,,,,,,,,,,,,,,,,,,,,,,,,,,,,,,,,,328.6466078000001,328.6931115,329.16125720000014,329.1613026,329.6603719,330.0867330000001,329.9450141,329.9450409000001,331.2624052000001,331.2624052000001,331.7462405000001,left,0.46743480000009185,None,,,,,,,,,,,,,,,,,,,,,,,,,,,,,,,,004,001,2023-11-11_13h42.51.152,untitled,2023.2.2,60.14845842508881,2023-11-11 13h43.11.080224 +0800,
1,test2/leftstar.PNG,space,,,,,,,,,0,2,2,0,,,,,331.80643110000005,,,,,,,,,,,,,,,,,,,,,,,,,,,,,,,,,,,,,,,,,,,,,,,,,,,,,,,,,,,,,,,,,,,,,,,,,,,331.7471190000001,331.80643110000005,332.26085090000015,332.2608798000001,332.76026679999995,333.16962520000016,333.04465529999993,333.0446810000001,334.36248290000003,334.36248290000003,334.72924439999997,space,0.3508741000000555,None,,,,,,,,,,,,,,,,,,,,,,,,,,,,,,,,004,001,2023-11-11_13h42.51.152,untitled,2023.2.2,60.14845842508881,2023-11-11 13h43.11.080224 +0800,
9,test2/rightstar.PNG,right,,,,,,,,,0,3,3,3,,,,,334.7791139000001,,,,,,,,,,,,,,,,,,,,,,,,,,,,,,,,,,,,,,,,,,,,,,,,,,,,,,,,,,,,,,,,,,,,,,,,,,,334.7300755000001,334.7791139000001,335.244226,335.24424999999997,335.74354540000013,336.14725420000013,336.02823890000013,336.0282738000001,337.3460493,337.3460493,337.6630602,right,0.31468119999999544,None,,,,,,,,,,,,,,,,,,,,,,,,,,,,,,,,004,001,2023-11-11_13h42.51.152,untitled,2023.2.2,60.14845842508881,2023-11-11 13h43.11.080224 +0800,
1,test2/blank.PNG,space,,,,,,,,,0,4,4,2,,,,,337.7154365000001,,,,,,,,,,,,,,,,,,,,,,,,,,,,,,,,,,,,,,,,,,,,,,,,,,,,,,,,,,,,,,,,,,,,,,,,,,,337.66393719999996,337.7154365000001,338.1779847,338.17801940000004,338.6769481000001,339.11463849999996,338.9614858,338.9615215000001,340.2782399,340.2782399,340.77934060000007,space,0.49629300000015064,None,,,,,,,,,,,,,,,,,,,,,,,,,,,,,,,,004,001,2023-11-11_13h42.51.152,untitled,2023.2.2,60.14845842508881,2023-11-11 13h43.11.080224 +0800,
2,test2/leftstar.PNG,space,,,,,,,,,0,5,5,4,,,,,340.83429309999997,,,,,,,,,,,,,,,,,,,,,,,,,,,,,,,,,,,,,,,,,,,,,,,,,,,,,,,,,,,,,,,,,,,,,,,,,,,340.7802342,340.83429309999997,341.29452420000007,341.29456890000006,341.79364609999993,342.35094090000007,342.0780962000001,342.07812250000006,343.3956330000001,343.3956330000001,343.74582899999996,space,0.3397675999999592,None,,,,,,,,,,,,,,,,,,,,,,,,,,,,,,,,004,001,2023-11-11_13h42.51.152,untitled,2023.2.2,60.14845842508881,2023-11-11 13h43.11.080224 +0800,
,,,,,,,,,,,,,,,,,,,,,,,,,,,,,,,,,,,,,,,,,,,,,,,,,,,,,,,,,,,,,,,,,,,,,,,,,,,,,,,,,,,,,,,,,,,,,,,,,,,,,,,,,,,,343.74650700000007,343.76023839999993,343.76023839999993,344.7603960000001,344.9785922000001,space,1.2141630000000987,None,,,,,,,,,,,,,,,,,,,,,,,,004,001,2023-11-11_13h42.51.152,untitled,2023.2.2,60.14845842508881,2023-11-11 13h43.11.080224 +0800,
,,,,,,,,,,,,,,,,,,,,,,,,,,,,,,,,,,,,,,,,,,,,,,,,,,,,,,,,,,,,,,,,,,,,,,,,,,,,,,,,,,,,,,,,,,,,,,,,,,,,,,,,,,,,,,,,,,,,344.9786543,344.99364230000015,344.99364230000015,345.8617644000001,space,0.8591962999998941,None,,,,,,,,,,,,,,,,,004,001,2023-11-11_13h42.51.152,untitled,2023.2.2,60.14845842508881,2023-11-11 13h43.11.080224 +0800,
9,condition_2/leftstar.PNG,left,,,,,,,,,,,,,0,0,0,19,345.94405299999994,,,,,,,,,,,,,,,,,,,,,,,,,,,,,,,,,,,,,,,,,,,,,,,,,,,,,,,,,,,,,,,,,,,,,,,,,,,,,,,,,,,,,,,,,,,,,,,,,,,,,,,,345.88137499999993,345.94405299999994,346.3780011000001,346.3780282,346.87704770000005,347.28939919999993,347.1613823,347.16141770000013,348.4923093,348.4923093,348.8785829000001,left,1,0.3734675000000607,None,,004,001,2023-11-11_13h42.51.152,untitled,2023.2.2,60.14845842508881,2023-11-11 13h43.11.080224 +0800,
9,condition_2/rightstar.PNG,right,,,,,,,,,,,,,0,1,1,7,348.9321092,,,,,,,,,,,,,,,,,,,,,,,,,,,,,,,,,,,,,,,,,,,,,,,,,,,,,,,,,,,,,,,,,,,,,,,,,,,,,,,,,,,,,,,,,,,,,,,,,,,,,,,,348.87967520000007,348.9321092,349.39447570000016,349.3945037000001,349.8937192000001,350.30082659999994,350.17804790000014,350.17808390000005,351.49592210000014,351.49592210000014,351.81245260000014,right,1,0.3017664000001332,None,,004,001,2023-11-11_13h42.51.152,untitled,2023.2.2,60.14845842508881,2023-11-11 13h43.11.080224 +0800,
9,condition_2/blank.PNG,space,,,,,,,,,,,,,0,2,2,11,351.87425129999997,,,,,,,,,,,,,,,,,,,,,,,,,,,,,,,,,,,,,,,,,,,,,,,,,,,,,,,,,,,,,,,,,,,,,,,,,,,,,,,,,,,,,,,,,,,,,,,,,,,,,,,,351.8133093000001,351.87425129999997,352.3276512,352.3276754000001,352.8270099000001,353.2107268,353.1113501,353.1113838000001,354.42839419999996,354.42839419999996,355.1126107,space,1,0.6802047999999559,None,,004,001,2023-11-11_13h42.51.152,untitled,2023.2.2,60.14845842508881,2023-11-11 13h43.11.080224 +0800,
1,condition_2/leftstar.PNG,space,,,,,,,,,,,,,0,3,3,0,355.16884530000016,,,,,,,,,,,,,,,,,,,,,,,,,,,,,,,,,,,,,,,,,,,,,,,,,,,,,,,,,,,,,,,,,,,,,,,,,,,,,,,,,,,,,,,,,,,,,,,,,,,,,,,,355.11379149999993,355.16884530000016,355.6277241,355.6277514000001,356.12699109999994,356.6558156000001,356.41139280000016,356.4114208000001,357.7293488,357.7293488,358.11252420000005,space,1,0.36882760000003145,None,,004,001,2023-11-11_13h42.51.152,untitled,2023.2.2,60.14845842508881,2023-11-11 13h43.11.080224 +0800,
8,condition_2/rightstar.PNG,right,,,,,,,,,,,,,0,4,4,14,358.16814079999995,,,,,,,,,,,,,,,,,,,,,,,,,,,,,,,,,,,,,,,,,,,,,,,,,,,,,,,,,,,,,,,,,,,,,,,,,,,,,,,,,,,,,,,,,,,,,,,,,,,,,,,,358.11355070000013,358.16814079999995,358.6277729000001,358.6277992,359.1270839000001,359.56800079999994,359.41129279999996,359.41132570000013,360.72895970000013,360.72895970000013,361.4956248000001,right,1,0.7500222000001031,None,,004,001,2023-11-11_13h42.51.152,untitled,2023.2.2,60.14845842508881,2023-11-11 13h43.11.080224 +0800,
9,condition_2/leftstar.PNG,left,,,,,,,,,,,,,0,5,5,3,361.55582530000015,,,,,,,,,,,,,,,,,,,,,,,,,,,,,,,,,,,,,,,,,,,,,,,,,,,,,,,,,,,,,,,,,,,,,,,,,,,,,,,,,,,,,,,,,,,,,,,,,,,,,,,,361.49673899999993,361.55582530000015,362.01099850000014,362.01102349999996,362.5101939000001,362.9553456000001,362.79477880000013,362.79480590000003,364.1124568,364.1124568,364.52896140000007,left,1,0.3995425000000523,None,,004,001,2023-11-11_13h42.51.152,untitled,2023.2.2,60.14845842508881,2023-11-11 13h43.11.080224 +0800,
8,condition_2/blank.PNG,space,,,,,,,,,,,,,0,6,6,24,364.58313509999994,,,,,,,,,,,,,,,,,,,,,,,,,,,,,,,,,,,,,,,,,,,,,,,,,,,,,,,,,,,,,,,,,,,,,,,,,,,,,,,,,,,,,,,,,,,,,,,,,,,,,,,,364.5300750000001,364.58313509999994,365.0449979,365.04502290000005,365.5435744000001,365.9101178000001,365.8277515,365.8277783000001,367.14506040000015,367.14506040000015,367.62894630000005,space,1,0.4675448000000415,None,,004,001,2023-11-11_13h42.51.152,untitled,2023.2.2,60.14845842508881,2023-11-11 13h43.11.080224 +0800,
1,condition_2/rightstar.PNG,space,,,,,,,,,,,,,0,7,7,12,367.6950214000001,,,,,,,,,,,,,,,,,,,,,,,,,,,,,,,,,,,,,,,,,,,,,,,,,,,,,,,,,,,,,,,,,,,,,,,,,,,,,,,,,,,,,,,,,,,,,,,,,,,,,,,,367.6300097000001,367.6950214000001,368.14450039999997,368.14452559999995,368.6437966000001,369.2035743000001,368.9284460000001,368.9284739,370.24561700000004,370.24561700000004,370.5293153,space,1,0.2717350999998871,None,,004,001,2023-11-11_13h42.51.152,untitled,2023.2.2,60.14845842508881,2023-11-11 13h43.11.080224 +0800,
1,condition_2/leftstar.PNG,space,,,,,,,,,,,,,0,8,8,16,370.5813805,,,,,,,,,,,,,,,,,,,,,,,,,,,,,,,,,,,,,,,,,,,,,,,,,,,,,,,,,,,,,,,,,,,,,,,,,,,,,,,,,,,,,,,,,,,,,,,,,,,,,,,,370.53065289999995,370.5813805,371.0446684000001,371.0447156,371.5437094000001,371.9434254,371.8283331,371.8283689,373.14600659999996,373.14600659999996,373.529262,space,1,0.3692799999998897,None,,004,001,2023-11-11_13h42.51.152,untitled,2023.2.2,60.14845842508881,2023-11-11 13h43.11.080224 +0800,
9,condition_2/leftstar.PNG,left,,,,,,,,,,,,,0,9,9,20,373.58368429999996,,,,,,,,,,,,,,,,,,,,,,,,,,,,,,,,,,,,,,,,,,,,,,,,,,,,,,,,,,,,,,,,,,,,,,,,,,,,,,,,,,,,,,,,,,,,,,,,,,,,,,,,373.53035380000006,373.58368429999996,374.0448308,374.04487530000006,374.5435864000001,374.94113029999994,374.82802489999995,374.8280523000001,376.1458384,376.1458384,376.4960386,left,1,0.3482945999999174,None,,004,001,2023-11-11_13h42.51.152,untitled,2023.2.2,60.14845842508881,2023-11-11 13h43.11.080224 +0800,
9,condition_2/rightstar.PNG,right,,,,,,,,,,,,,0,10,10,15,376.54811199999995,,,,,,,,,,,,,,,,,,,,,,,,,,,,,,,,,,,,,,,,,,,,,,,,,,,,,,,,,,,,,,,,,,,,,,,,,,,,,,,,,,,,,,,,,,,,,,,,,,,,,,,,376.49721999999997,376.54811199999995,377.01102000000014,377.01105860000007,377.5103749,377.95443879999993,377.79539450000016,377.79543030000013,379.11247389999994,379.11247389999994,379.43041570000014,right,1,0.3144741000000977,None,,004,001,2023-11-11_13h42.51.152,untitled,2023.2.2,60.14845842508881,2023-11-11 13h43.11.080224 +0800,
8,condition_2/leftstar.PNG,left,,,,,,,,,,,,,0,11,11,18,379.48647000000005,,,,,,,,,,,,,,,,,,,,,,,,,,,,,,,,,,,,,,,,,,,,,,,,,,,,,,,,,,,,,,,,,,,,,,,,,,,,,,,,,,,,,,,,,,,,,,,,,,,,,,,,379.43193250000013,379.48647000000005,379.9445946000001,379.94463310000015,380.4437054,380.8722660000001,380.72815790000004,380.7281924000001,382.04573849999997,382.04573849999997,382.41309479999995,left,1,0.35136919999990823,None,,004,001,2023-11-11_13h42.51.152,untitled,2023.2.2,60.14845842508881,2023-11-11 13h43.11.080224 +0800,
1,condition_2/leftstar.PNG,space,,,,,,,,,,,,,0,12,12,22,382.46510779999994,,,,,,,,,,,,,,,,,,,,,,,,,,,,,,,,,,,,,,,,,,,,,,,,,,,,,,,,,,,,,,,,,,,,,,,,,,,,,,,,,,,,,,,,,,,,,,,,,,,,,,,,382.4142061,382.46510779999994,382.9276738000001,382.9277188000001,383.4270096,383.8261444,383.711626,383.7116568000001,385.0291985000001,385.0291985000001,385.1456261000001,space,1,0.10650809999992816,None,,004,001,2023-11-11_13h42.51.152,untitled,2023.2.2,60.14845842508881,2023-11-11 13h43.11.080224 +0800,
1,condition_2/blank.PNG,space,,,,,,,,,,,,,0,13,13,8,385.2006378000001,,,,,,,,,,,,,,,,,,,,,,,,,,,,,,,,,,,,,,,,,,,,,,,,,,,,,,,,,,,,,,,,,,,,,,,,,,,,,,,,,,,,,,,,,,,,,,,,,,,,,,,,385.1468261,385.2006378000001,385.6609992000001,385.66103840000005,386.160474,386.53796680000005,386.4448027000001,386.44483790000004,387.76161750000006,387.76161750000006,388.81175239999993,space,1,1.0450737999999546,None,388.56026050000014,004,001,2023-11-11_13h42.51.152,untitled,2023.2.2,60.14845842508881,2023-11-11 13h43.11.080224 +0800,
1,condition_2/rightstar.PNG,space,,,,,,,,,,,,,0,14,14,4,388.8607498000001,,,,,,,,,,,,,,,,,,,,,,,,,,,,,,,,,,,,,,,,,,,,,,,,,,,,,,,,,,,,,,,,,,,,,,,,,,,,,,,,,,,,,,,,,,,,,,,,,,,,,,,,388.81285249999996,388.8607498000001,389.32781610000006,389.32784289999995,389.8269524,390.34167760000014,390.1116013000001,390.1116349000001,391.4291955000001,391.4291955000001,391.71311860000014,space,1,0.28103630000009616,None,,004,001,2023-11-11_13h42.51.152,untitled,2023.2.2,60.14845842508881,2023-11-11 13h43.11.080224 +0800,
8,condition_2/rightstar.PNG,right,,,,,,,,,,,,,0,15,15,23,391.7645404,,,,,,,,,,,,,,,,,,,,,,,,,,,,,,,,,,,,,,,,,,,,,,,,,,,,,,,,,,,,,,,,,,,,,,,,,,,,,,,,,,,,,,,,,,,,,,,,,,,,,,,,391.71422000000007,391.7645404,392.2278281000001,392.22786670000005,392.72694290000004,393.12078840000004,393.0116144000001,393.01165170000013,394.32907840000007,394.32907840000007,394.71270060000006,right,1,0.37309750000008535,None,,004,001,2023-11-11_13h42.51.152,untitled,2023.2.2,60.14845842508881,2023-11-11 13h43.11.080224 +0800,
2,condition_2/leftstar.PNG,space,,,,,,,,,,,,,0,16,16,1,394.7626451000001,,,,,,,,,,,,,,,,,,,,,,,,,,,,,,,,,,,,,,,,,,,,,,,,,,,,,,,,,,,,,,,,,,,,,,,,,,,,,,,,,,,,,,,,,,,,,,,,,,,,,,,,394.71396389999995,394.7626451000001,395.2277865000001,395.2278228,395.7270126000001,396.1247221000001,396.0114373000001,396.01148050000006,397.3292546,397.3292546,397.59570669999994,space,1,0.2540732999998454,None,,004,001,2023-11-11_13h42.51.152,untitled,2023.2.2,60.14845842508881,2023-11-11 13h43.11.080224 +0800,
8,condition_2/leftstar.PNG,left,,,,,,,,,,,,,0,17,17,2,397.64923380000005,,,,,,,,,,,,,,,,,,,,,,,,,,,,,,,,,,,,,,,,,,,,,,,,,,,,,,,,,,,,,,,,,,,,,,,,,,,,,,,,,,,,,,,,,,,,,,,,,,,,,,,,397.5967667,397.64923380000005,398.11129260000007,398.11131810000006,398.6104322000001,399.0049550000001,398.8946687,398.8946952000001,400.2122187,400.2122187,400.5116322000001,left,1,0.2855186000001595,None,,004,001,2023-11-11_13h42.51.152,untitled,2023.2.2,60.14845842508881,2023-11-11 13h43.11.080224 +0800,
2,condition_2/rightstar.PNG,space,,,,,,,,,,,,,0,18,18,13,400.5952443000001,,,,,,,,,,,,,,,,,,,,,,,,,,,,,,,,,,,,,,,,,,,,,,,,,,,,,,,,,,,,,,,,,,,,,,,,,,,,,,,,,,,,,,,,,,,,,,,,,,,,,,,,400.51252610000006,400.5952443000001,401.0278207000001,401.02784410000004,401.52683260000003,401.96308450000015,401.811101,401.81111940000005,403.12932109999997,403.12932109999997,403.34588110000004,space,1,0.2087143000001106,None,,004,001,2023-11-11_13h42.51.152,untitled,2023.2.2,60.14845842508881,2023-11-11 13h43.11.080224 +0800,
2,condition_2/blank.PNG,space,,,,,,,,,,,,,0,19,19,9,403.39666280000006,,,,,,,,,,,,,,,,,,,,,,,,,,,,,,,,,,,,,,,,,,,,,,,,,,,,,,,,,,,,,,,,,,,,,,,,,,,,,,,,,,,,,,,,,,,,,,,,,,,,,,,,403.3469964000001,403.39666280000006,403.86112920000005,403.8611568000001,404.36057600000004,404.7809148000001,404.644497,404.64452460000007,405.9614303000001,405.9614303000001,407.26211090000015,space,1,1.2953604999997879,None,406.76095740000005,004,001,2023-11-11_13h42.51.152,untitled,2023.2.2,60.14845842508881,2023-11-11 13h43.11.080224 +0800,
2,condition_2/leftstar.PNG,space,,,,,,,,,,,,,0,20,20,17,407.3386352,,,,,,,,,,,,,,,,,,,,,,,,,,,,,,,,,,,,,,,,,,,,,,,,,,,,,,,,,,,,,,,,,,,,,,,,,,,,,,,,,,,,,,,,,,,,,,,,,,,,,,,,407.2631364000001,407.3386352,407.77785530000006,407.77788239999995,408.27710990000014,408.81372750000014,408.56122830000004,408.56125470000006,409.8790421000001,409.8790421000001,410.0950074,space,1,0.20116189999998824,None,,004,001,2023-11-11_13h42.51.152,untitled,2023.2.2,60.14845842508881,2023-11-11 13h43.11.080224 +0800,
2,condition_2/rightstar.PNG,space,,,,,,,,,,,,,0,21,21,5,410.1475593,,,,,,,,,,,,,,,,,,,,,,,,,,,,,,,,,,,,,,,,,,,,,,,,,,,,,,,,,,,,,,,,,,,,,,,,,,,,,,,,,,,,,,,,,,,,,,,,,,,,,,,,410.09561069999995,410.1475593,410.61097740000014,410.6109891000001,411.1103902,411.50611649999996,411.39468910000005,411.39471560000015,412.71224269999993,412.71224269999993,412.92960629999993,space,1,0.2149022999999488,None,,004,001,2023-11-11_13h42.51.152,untitled,2023.2.2,60.14845842508881,2023-11-11 13h43.11.080224 +0800,
8,condition_2/blank.PNG,space,,,,,,,,,,,,,0,22,22,10,412.97985429999994,,,,,,,,,,,,,,,,,,,,,,,,,,,,,,,,,,,,,,,,,,,,,,,,,,,,,,,,,,,,,,,,,,,,,,,,,,,,,,,,,,,,,,,,,,,,,,,,,,,,,,,,412.9309538,412.97985429999994,413.4446686000001,413.44470709999996,413.9437723000001,414.3080361,414.2281216000001,414.22815400000013,415.54480890000013,415.54480890000013,416.11272699999995,space,1,0.5664017999999942,None,,004,001,2023-11-11_13h42.51.152,untitled,2023.2.2,60.14845842508881,2023-11-11 13h43.11.080224 +0800,
8,condition_2/rightstar.PNG,right,,,,,,,,,,,,,0,23,23,6,416.16355799999997,,,,,,,,,,,,,,,,,,,,,,,,,,,,,,,,,,,,,,,,,,,,,,,,,,,,,,,,,,,,,,,,,,,,,,,,,,,,,,,,,,,,,,,,,,,,,,,,,,,,,,,,416.11379120000015,416.16355799999997,416.62772599999994,416.62775290000013,417.1269751,417.66190900000015,417.41137060000005,417.4113950000001,418.7291238,418.7291238,419.1455267000001,right,1,0.40137639999989005,None,,004,001,2023-11-11_13h42.51.152,untitled,2023.2.2,60.14845842508881,2023-11-11 13h43.11.080224 +0800,
2,condition_2/rightstar.PNG,space,,,,,,,,,,,,,0,24,24,21,419.19776920000004,,,,,,,,,,,,,,,,,,,,,,,,,,,,,,,,,,,,,,,,,,,,,,,,,,,,,,,,,,,,,,,,,,,,,,,,,,,,,,,,,,,,,,,,,,,,,,,,,,,,,,,,419.1465968,419.19776920000004,419.6611471000001,419.66118630000005,420.1603269,420.59424390000004,420.44485280000004,420.44488810000007,421.76240529999995,421.76240529999995,422.11275190000015,space,1,0.3480976000000737,None,,004,001,2023-11-11_13h42.51.152,untitled,2023.2.2,60.14845842508881,2023-11-11 13h43.11.080224 +0800,
1,condition_2/leftstar.PNG,space,,,,,,,,,,,,,1,0,25,16,422.1764754000001,,,,,,,,,,,,,,,,,,,,,,,,,,,,,,,,,,,,,,,,,,,,,,,,,,,,,,,,,,,,,,,,,,,,,,,,,,,,,,,,,,,,,,,,,,,,,,,,,,,,,,,,422.1137857000001,422.1764754000001,422.6276656,422.62769230000004,423.1270025000001,423.5272433,423.4111147000001,423.4111415,424.7290143,424.7290143,425.11271780000015,space,1,0.374804499999982,None,,004,001,2023-11-11_13h42.51.152,untitled,2023.2.2,60.14845842508881,2023-11-11 13h43.11.080224 +0800,
9,condition_2/rightstar.PNG,right,,,,,,,,,,,,,1,1,26,7,425.16566119999993,,,,,,,,,,,,,,,,,,,,,,,,,,,,,,,,,,,,,,,,,,,,,,,,,,,,,,,,,,,,,,,,,,,,,,,,,,,,,,,,,,,,,,,,,,,,,,,,,,,,,,,,425.11380280000003,425.16566119999993,425.62773100000004,425.6277576,426.1271127,426.53964229999997,426.4117884,426.4118204000001,427.72926699999994,427.72926699999994,428.01329090000013,right,1,0.27859859999989567,None,,004,001,2023-11-11_13h42.51.152,untitled,2023.2.2,60.14845842508881,2023-11-11 13h43.11.080224 +0800,
9,condition_2/blank.PNG,space,,,,,,,,,,,,,1,2,27,11,428.06520350000005,,,,,,,,,,,,,,,,,,,,,,,,,,,,,,,,,,,,,,,,,,,,,,,,,,,,,,,,,,,,,,,,,,,,,,,,,,,,,,,,,,,,,,,,,,,,,,,,,,,,,,,,428.01462689999994,428.06520350000005,428.5278587,428.5278969000001,429.02708970000003,429.4180824,429.31122060000007,429.3112473000001,430.62832619999995,430.62832619999995,431.8951584000001,space,1,1.2537484000001768,None,431.42699689999995,004,001,2023-11-11_13h42.51.152,untitled,2023.2.2,60.14845842508881,2023-11-11 13h43.11.080224 +0800,
2,condition_2/leftstar.PNG,space,,,,,,,,,,,,,1,3,28,17,431.94983849999994,,,,,,,,,,,,,,,,,,,,,,,,,,,,,,,,,,,,,,,,,,,,,,,,,,,,,,,,,,,,,,,,,,,,,,,,,,,,,,,,,,,,,,,,,,,,,,,,,,,,,,,,431.896264,431.94983849999994,432.41110950000007,432.41113710000013,432.91056849999995,433.46920479999994,433.1950084,433.19503669999995,434.51232900000014,434.51232900000014,435.0127672000001,space,1,0.4931031000000985,None,,004,001,2023-11-11_13h42.51.152,untitled,2023.2.2,60.14845842508881,2023-11-11 13h43.11.080224 +0800,
1,condition_2/blank.PNG,space,,,,,,,,,,,,,1,4,29,8,435.0621123000001,,,,,,,,,,,,,,,,,,,,,,,,,,,,,,,,,,,,,,,,,,,,,,,,,,,,,,,,,,,,,,,,,,,,,,,,,,,,,,,,,,,,,,,,,,,,,,,,,,,,,,,,435.0138422,435.0621123000001,435.52767800000015,435.5277245,436.0269998000001,436.3926028000001,436.31149730000016,436.31152999999995,437.62813900000015,437.62813900000015,439.2788438,space,1,1.6400598999998692,None,438.42703440000014,004,001,2023-11-11_13h42.51.152,untitled,2023.2.2,60.14845842508881,2023-11-11 13h43.11.080224 +0800,
9,condition_2/leftstar.PNG,left,,,,,,,,,,,,,1,5,30,20,439.33503629999996,,,,,,,,,,,,,,,,,,,,,,,,,,,,,,,,,,,,,,,,,,,,,,,,,,,,,,,,,,,,,,,,,,,,,,,,,,,,,,,,,,,,,,,,,,,,,,,,,,,,,,,,439.27993289999995,439.33503629999996,439.79456559999994,439.79461130000004,440.2936221,440.7117177,440.57821650000005,440.5782627000001,441.89561700000013,441.89561700000013,442.27943830000004,left,1,0.37150910000013937,None,,004,001,2023-11-11_13h42.51.152,untitled,2023.2.2,60.14845842508881,2023-11-11 13h43.11.080224 +0800,
9,condition_2/leftstar.PNG,left,,,,,,,,,,,,,1,6,31,3,442.33996790000015,,,,,,,,,,,,,,,,,,,,,,,,,,,,,,,,,,,,,,,,,,,,,,,,,,,,,,,,,,,,,,,,,,,,,,,,,,,,,,,,,,,,,,,,,,,,,,,,,,,,,,,,442.2805154,442.33996790000015,442.79467079999995,442.7946987,443.29376449999995,443.70465690000015,443.5780006,443.5780277000001,444.8957044000001,444.8957044000001,445.262747,left,1,0.36082009999995535,None,,004,001,2023-11-11_13h42.51.152,untitled,2023.2.2,60.14845842508881,2023-11-11 13h43.11.080224 +0800,
1,condition_2/leftstar.PNG,space,,,,,,,,,,,,,1,7,32,0,445.31745479999995,,,,,,,,,,,,,,,,,,,,,,,,,,,,,,,,,,,,,,,,,,,,,,,,,,,,,,,,,,,,,,,,,,,,,,,,,,,,,,,,,,,,,,,,,,,,,,,,,,,,,,,,445.2640642000001,445.31745479999995,445.77763460000006,445.7776716000001,446.277071,446.72924620000003,446.56150230000003,446.56153540000014,447.8794259000001,447.8794259000001,448.1797530000001,space,1,0.28401099999996404,None,,004,001,2023-11-11_13h42.51.152,untitled,2023.2.2,60.14845842508881,2023-11-11 13h43.11.080224 +0800,
2,condition_2/rightstar.PNG,space,,,,,,,,,,,,,1,8,33,13,448.23981019999997,,,,,,,,,,,,,,,,,,,,,,,,,,,,,,,,,,,,,,,,,,,,,,,,,,,,,,,,,,,,,,,,,,,,,,,,,,,,,,,,,,,,,,,,,,,,,,,,,,,,,,,,448.18086830000016,448.23981019999997,448.6944662000001,448.69450410000013,449.193984,449.59921840000015,449.4783969,449.47843290000014,450.79584840000007,450.79584840000007,451.11270220000006,space,1,0.30866889999992964,None,,004,001,2023-11-11_13h42.51.152,untitled,2023.2.2,60.14845842508881,2023-11-11 13h43.11.080224 +0800,
1,condition_2/leftstar.PNG,space,,,,,,,,,,,,,1,9,34,22,451.1654641,,,,,,,,,,,,,,,,,,,,,,,,,,,,,,,,,,,,,,,,,,,,,,,,,,,,,,,,,,,,,,,,,,,,,,,,,,,,,,,,,,,,,,,,,,,,,,,,,,,,,,,,451.11393220000014,451.1654641,451.6282712,451.6283066000001,452.12707,452.5236066,452.4114112,452.41143839999995,453.72925050000003,453.72925050000003,453.8625581000001,space,1,0.12282460000005813,None,,004,001,2023-11-11_13h42.51.152,untitled,2023.2.2,60.14845842508881,2023-11-11 13h43.11.080224 +0800,
2,condition_2/leftstar.PNG,space,,,,,,,,,,,,,1,10,35,1,453.91424299999994,,,,,,,,,,,,,,,,,,,,,,,,,,,,,,,,,,,,,,,,,,,,,,,,,,,,,,,,,,,,,,,,,,,,,,,,,,,,,,,,,,,,,,,,,,,,,,,,,,,,,,,,453.8636699000001,453.91424299999994,454.3778010000001,454.37782630000015,454.8768130000001,455.28535020000004,455.16123459999994,455.16126150000014,456.4793006,456.4793006,456.8965691000001,space,1,0.41457740000009835,None,,004,001,2023-11-11_13h42.51.152,untitled,2023.2.2,60.14845842508881,2023-11-11 13h43.11.080224 +0800,
8,condition_2/rightstar.PNG,right,,,,,,,,,,,,,1,11,36,6,456.95095850000007,,,,,,,,,,,,,,,,,,,,,,,,,,,,,,,,,,,,,,,,,,,,,,,,,,,,,,,,,,,,,,,,,,,,,,,,,,,,,,,,,,,,,,,,,,,,,,,,,,,,,,,,456.8976480000001,456.95095850000007,457.4112043,457.4112457000001,457.91030309999996,458.33071730000006,458.1949118,458.1949452000001,459.5125055000001,459.5125055000001,459.94616429999996,right,1,0.42515400000002046,None,,004,001,2023-11-11_13h42.51.152,untitled,2023.2.2,60.14845842508881,2023-11-11 13h43.11.080224 +0800,
1,condition_2/rightstar.PNG,space,,,,,,,,,,,,,1,12,37,12,459.99764240000013,,,,,,,,,,,,,,,,,,,,,,,,,,,,,,,,,,,,,,,,,,,,,,,,,,,,,,,,,,,,,,,,,,,,,,,,,,,,,,,,,,,,,,,,,,,,,,,,,,,,,,,,459.94738329999996,459.99764240000013,460.46118879999995,460.4612336,460.96029210000006,461.35760419999997,461.24487569999997,461.24491260000013,462.56238600000006,462.56238600000006,462.82891300000006,space,1,0.2574001999998927,None,,004,001,2023-11-11_13h42.51.152,untitled,2023.2.2,60.14845842508881,2023-11-11 13h43.11.080224 +0800,
8,condition_2/rightstar.PNG,right,,,,,,,,,,,,,1,13,38,23,462.879275,,,,,,,,,,,,,,,,,,,,,,,,,,,,,,,,,,,,,,,,,,,,,,,,,,,,,,,,,,,,,,,,,,,,,,,,,,,,,,,,,,,,,,,,,,,,,,,,,,,,,,,,462.8299899000001,462.879275,463.34438350000005,463.34441000000015,463.84364989999995,464.24246659999994,464.1283105,464.12833709999995,465.4456937,465.4456937,465.76226010000005,right,1,0.3039688000001206,None,,004,001,2023-11-11_13h42.51.152,untitled,2023.2.2,60.14845842508881,2023-11-11 13h43.11.080224 +0800,
8,condition_2/blank.PNG,space,,,,,,,,,,,,,1,14,39,10,465.81666970000015,,,,,,,,,,,,,,,,,,,,,,,,,,,,,,,,,,,,,,,,,,,,,,,,,,,,,,,,,,,,,,,,,,,,,,,,,,,,,,,,,,,,,,,,,,,,,,,,,,,,,,,,465.76342320000003,465.81666970000015,466.27794029999995,466.27798200000007,466.7770014,467.19759250000016,467.0614938000001,467.0615215,468.37834999999995,468.37834999999995,469.5119105000001,space,1,1.1284252999998898,None,469.1769598000001,004,001,2023-11-11_13h42.51.152,untitled,2023.2.2,60.14845842508881,2023-11-11 13h43.11.080224 +0800,
8,condition_2/blank.PNG,space,,,,,,,,,,,,,1,15,40,24,469.56361360000005,,,,,,,,,,,,,,,,,,,,,,,,,,,,,,,,,,,,,,,,,,,,,,,,,,,,,,,,,,,,,,,,,,,,,,,,,,,,,,,,,,,,,,,,,,,,,,,,,,,,,,,,469.5130315000001,469.56361360000005,470.0283729,470.0283984,470.5268916,470.84656770000015,470.8118773000001,470.8119108000001,472.12815160000014,472.12815160000014,472.8292673000001,space,1,0.6938806000000568,None,,004,001,2023-11-11_13h42.51.152,untitled,2023.2.2,60.14845842508881,2023-11-11 13h43.11.080224 +0800,
1,condition_2/rightstar.PNG,space,,,,,,,,,,,,,1,16,41,4,472.8797981,,,,,,,,,,,,,,,,,,,,,,,,,,,,,,,,,,,,,,,,,,,,,,,,,,,,,,,,,,,,,,,,,,,,,,,,,,,,,,,,,,,,,,,,,,,,,,,,,,,,,,,,472.8304151,472.8797981,473.34451450000006,473.3445425,473.84372600000006,474.3545004,474.12771240000006,474.1277391000001,475.44564289999994,475.44564289999994,475.7456238,space,1,0.2844241000000238,None,,004,001,2023-11-11_13h42.51.152,untitled,2023.2.2,60.14845842508881,2023-11-11 13h43.11.080224 +0800,
8,condition_2/leftstar.PNG,left,,,,,,,,,,,,,1,17,42,2,475.79586029999996,,,,,,,,,,,,,,,,,,,,,,,,,,,,,,,,,,,,,,,,,,,,,,,,,,,,,,,,,,,,,,,,,,,,,,,,,,,,,,,,,,,,,,,,,,,,,,,,,,,,,,,,475.74649079999995,475.79586029999996,476.2612644000001,476.261307,476.7604096,477.16494850000004,477.04494309999995,477.04497790000005,478.36266160000014,478.36266160000014,478.68001860000004,left,1,0.29952860000003056,None,,004,001,2023-11-11_13h42.51.152,untitled,2023.2.2,60.14845842508881,2023-11-11 13h43.11.080224 +0800,
9,condition_2/leftstar.PNG,left,,,,,,,,,,,,,1,18,43,19,478.7376739000001,,,,,,,,,,,,,,,,,,,,,,,,,,,,,,,,,,,,,,,,,,,,,,,,,,,,,,,,,,,,,,,,,,,,,,,,,,,,,,,,,,,,,,,,,,,,,,,,,,,,,,,,478.6813717,478.7376739000001,479.194518,479.1945567,479.69375630000013,480.1014543000001,479.97846690000006,479.9785044,481.29584220000015,481.29584220000015,481.62907440000004,left,1,0.316193500000054,None,,004,001,2023-11-11_13h42.51.152,untitled,2023.2.2,60.14845842508881,2023-11-11 13h43.11.080224 +0800,
2,condition_2/rightstar.PNG,space,,,,,,,,,,,,,1,19,44,21,481.6784342000001,,,,,,,,,,,,,,,,,,,,,,,,,,,,,,,,,,,,,,,,,,,,,,,,,,,,,,,,,,,,,,,,,,,,,,,,,,,,,,,,,,,,,,,,,,,,,,,,,,,,,,,,481.6300784,481.6784342000001,482.1444411,482.14446799999996,482.6434151000001,483.04439980000006,482.92814880000014,482.9281882,484.24594560000014,484.24594560000014,484.312539,space,1,0.05899970000018584,None,,004,001,2023-11-11_13h42.51.152,untitled,2023.2.2,60.14845842508881,2023-11-11 13h43.11.080224 +0800,
2,condition_2/blank.PNG,space,,,,,,,,,,,,,1,20,45,9,484.3621249,,,,,,,,,,,,,,,,,,,,,,,,,,,,,,,,,,,,,,,,,,,,,,,,,,,,,,,,,,,,,,,,,,,,,,,,,,,,,,,,,,,,,,,,,,,,,,,,,,,,,,,,484.31357530000014,484.3621249,484.8275327000001,484.82754810000006,485.32692180000004,485.73703539999997,485.6113385000001,485.61136550000015,486.92827060000013,486.92827060000013,487.7956041,space,1,0.8505098999999063,None,487.72693559999993,004,001,2023-11-11_13h42.51.152,untitled,2023.2.2,60.14845842508881,2023-11-11 13h43.11.080224 +0800,
8,condition_2/rightstar.PNG,right,,,,,,,,,,,,,1,21,46,14,487.84949729999994,,,,,,,,,,,,,,,,,,,,,,,,,,,,,,,,,,,,,,,,,,,,,,,,,,,,,,,,,,,,,,,,,,,,,,,,,,,,,,,,,,,,,,,,,,,,,,,,,,,,,,,,487.79663860000005,487.84949729999994,488.3112278000001,488.3112549,488.8102837000001,489.35664310000016,489.0948578,489.09488550000015,490.412421,490.412421,490.67943190000005,right,1,0.25335659999996096,None,,004,001,2023-11-11_13h42.51.152,untitled,2023.2.2,60.14845842508881,2023-11-11 13h43.11.080224 +0800,
8,condition_2/leftstar.PNG,left,,,,,,,,,,,,,1,22,47,18,490.7451624,,,,,,,,,,,,,,,,,,,,,,,,,,,,,,,,,,,,,,,,,,,,,,,,,,,,,,,,,,,,,,,,,,,,,,,,,,,,,,,,,,,,,,,,,,,,,,,,,,,,,,,,490.68053770000006,490.7451624,491.1945653,491.1946034,491.6935909000001,492.10366350000004,491.9784101,491.9784440000001,493.2958532,493.2958532,493.6125664000001,left,1,0.3005609000001641,None,,004,001,2023-11-11_13h42.51.152,untitled,2023.2.2,60.14845842508881,2023-11-11 13h43.11.080224 +0800,
2,condition_2/rightstar.PNG,space,,,,,,,,,,,,,1,23,48,5,493.6686601000001,,,,,,,,,,,,,,,,,,,,,,,,,,,,,,,,,,,,,,,,,,,,,,,,,,,,,,,,,,,,,,,,,,,,,,,,,,,,,,,,,,,,,,,,,,,,,,,,,,,,,,,,493.61361869999996,493.6686601000001,494.12790229999996,494.12792860000013,494.62730839999995,495.06258690000004,494.91165520000004,494.91169000000014,496.22926600000005,496.22926600000005,496.62911600000007,space,1,0.3947832000001199,None,,004,001,2023-11-11_13h42.51.152,untitled,2023.2.2,60.14845842508881,2023-11-11 13h43.11.080224 +0800,
9,condition_2/rightstar.PNG,right,,,,,,,,,,,,,1,24,49,15,496.7062413000001,,,,,,,,,,,,,,,,,,,,,,,,,,,,,,,,,,,,,,,,,,,,,,,,,,,,,,,,,,,,,,,,,,,,,,,,,,,,,,,,,,,,,,,,,,,,,,,,,,,,,,,,496.6302203,496.7062413000001,497.14462819999994,497.14465829999995,497.64362170000004,498.0774312000001,497.9282211,497.92825659999994,499.24612189999993,499.24612189999993,499.52917560000014,right,1,0.27806409999993775,None,,004,001,2023-11-11_13h42.51.152,untitled,2023.2.2,60.14845842508881,2023-11-11 13h43.11.080224 +0800,
