stimuli,star,CorrectAns,trials_3.thisRepN,trials_3.thisTrialN,trials_3.thisN,trials_3.thisIndex,trials.thisRepN,trials.thisTrialN,trials.thisN,trials.thisIndex,trials_4.thisRepN,trials_4.thisTrialN,trials_4.thisN,trials_4.thisIndex,trials_2.thisRepN,trials_2.thisTrialN,trials_2.thisN,trials_2.thisIndex,thisRow.t,notes,routine_21.started,text_9.started,key_resp_8.started,routine_21.stopped,key_resp_8.keys,key_resp_8.rt,key_resp_8.duration,introduction.started,text_6.started,key_resp_5.started,introduction.stopped,key_resp_5.keys,key_resp_5.rt,key_resp_5.duration,routine_14.started,image_6.started,routine_14.stopped,routine_16.started,text_4.started,text_4.stopped,routine_16.stopped,routine_17.started,image_7.started,key_resp_3.started,image_7.stopped,routine_17.stopped,key_resp_3.keys,key_resp_3.rt,key_resp_3.duration,routine_20.started,text_8.started,key_resp_7.started,routine_20.stopped,key_resp_7.keys,key_resp_7.rt,key_resp_7.duration,routine_18.started,text_5.started,key_resp_4.started,routine_18.stopped,key_resp_4.keys,key_resp_4.rt,key_resp_4.duration,trial.started,image_3.started,trial.stopped,routine.started,text_3.started,text_3.stopped,routine.stopped,routine_1.started,image_2.started,key_resp.started,routine_1.stopped,key_resp.keys,key_resp.corr,key_resp.rt,key_resp.duration,image_2.stopped,routine_22.started,text_10.started,key_resp_9.started,routine_22.stopped,key_resp_9.keys,key_resp_9.rt,key_resp_9.duration,routine_19.started,text_7.started,key_resp_6.started,routine_19.stopped,key_resp_6.keys,key_resp_6.rt,key_resp_6.duration,routine_23.started,image_8.started,routine_23.stopped,routine_24.started,text_11.started,text_11.stopped,routine_24.stopped,routine_25.started,image_9.started,key_resp_10.started,routine_25.stopped,key_resp_10.keys,key_resp_10.rt,key_resp_10.duration,image_9.stopped,routine_26.started,text_12.started,key_resp_11.started,text_12.stopped,routine_26.stopped,key_resp_11.keys,key_resp_11.rt,key_resp_11.duration,routine_27.started,text_13.started,key_resp_12.started,text_13.stopped,routine_27.stopped,key_resp_12.keys,key_resp_12.rt,key_resp_12.duration,routine_10.started,image_4.started,routine_10.stopped,routine_11.started,text.started,text.stopped,routine_11.stopped,routine_12.started,image_5.started,key_resp_2.started,image_5.stopped,routine_12.stopped,key_resp_2.keys,key_resp_2.corr,key_resp_2.rt,key_resp_2.duration,participant,session,date,expName,psychopyVersion,frameRate,expStart,
,,,,,,,,,,,,,,,,,,,,,0.003797034004719535,0.008799551939773664,0.008799551939773664,6.407877831475162,space,6.395225658659228,None,,,,,,,,,,,,,,,,,,,,,,,,,,,,,,,,,,,,,,,,,,,,,,,,,,,,,,,,,,,,,,,,,,,,,,,,,,,,,,,,,,,,,,,,,,,,,,,,,,,,,,,,,,,,,,,,,,005,001,2023-11-09_18h02.45.511,untitled,2023.2.2,59.95906793071105,2023-11-09 18h02.57.998173 +0800,
,,,,,,,,,,,,,,,,,,,,,,,,,,,,6.407922300972132,6.422900108289241,6.422900108289241,45.20725579936334,space,38.77306434495836,None,,,,,,,,,,,,,,,,,,,,,,,,,,,,,,,,,,,,,,,,,,,,,,,,,,,,,,,,,,,,,,,,,,,,,,,,,,,,,,,,,,,,,,,,,,,,,,,,,,,,,,,,,,,005,001,2023-11-09_18h02.45.511,untitled,2023.2.2,59.95906793071105,2023-11-09 18h02.57.998173 +0800,
2,test/leftstar.PNG,left,0,0,0,4,,,,,,,,,,,,,45.400674974850745,,,,,,,,,,,,,,,,45.218429060936614,45.400674974850745,45.70989181893469,45.70990413818731,46.22248690253127,46.72640081920031,46.506389485487944,46.50640300661894,47.8353378660172,47.8353378660172,48.639185619285854,48.74063105821779,left,0.8966405698824929,None,,,,,,,,,,,,,,,,,,,,,,,,,,,,,,,,,,,,,,,,,,,,,,,,,,,,,,,,,,,,,,,,,,,,,,,,,,,,,,,,,,,,,,,,,,,,005,001,2023-11-09_18h02.45.511,untitled,2023.2.2,59.95906793071105,2023-11-09 18h02.57.998173 +0800,
1,test/leftstar.PNG,left,0,1,1,0,,,,,,,,,,,,,48.83996659980221,,,,,,,,,,,,,,,,48.74176022287634,48.83996659980221,49.24321689937051,49.24322711533591,49.75607910041822,50.2590600590604,50.04002465052395,50.040048387620345,51.36858121872865,51.36858121872865,,51.760866482138454,left,0.3794933722422229,None,,,,,,,,,,,,,,,,,,,,,,,,,,,,,,,,,,,,,,,,,,,,,,,,,,,,,,,,,,,,,,,,,,,,,,,,,,,,,,,,,,,,,,,,,,,,005,001,2023-11-09_18h02.45.511,untitled,2023.2.2,59.95906793071105,2023-11-09 18h02.57.998173 +0800,
9,test/rightstar.PNG,space,0,2,2,3,,,,,,,,,,,,,51.86066955437968,,,,,,,,,,,,,,,,51.761471026920844,51.86066955437968,52.27661469344298,52.27662520987815,52.772652100703,53.27401983820323,53.05652163200648,53.05653966018099,54.38540811580356,54.38540811580356,55.18917654510483,55.473539146978965,space,1.0818100527503702,None,,,,,,,,,,,,,,,,,,,,,,,,,,,,,,,,,,,,,,,,,,,,,,,,,,,,,,,,,,,,,,,,,,,,,,,,,,,,,,,,,,,,,,,,,,,,005,001,2023-11-09_18h02.45.511,untitled,2023.2.2,59.95906793071105,2023-11-09 18h02.57.998173 +0800,
8,test/rightstar.PNG,space,0,3,3,1,,,,,,,,,,,,,55.571491927584475,,,,,,,,,,,,,,,,55.47417824576246,55.571491927584475,55.97663758922454,55.97664870659878,56.48927714231809,56.99065359343581,56.773224495241266,56.77324402576346,58.10196915739925,58.10196915739925,,58.46123191323409,space,0.3569698725168564,None,,,,,,,,,,,,,,,,,,,,,,,,,,,,,,,,,,,,,,,,,,,,,,,,,,,,,,,,,,,,,,,,,,,,,,,,,,,,,,,,,,,,,,,,,,,,005,001,2023-11-09_18h02.45.511,untitled,2023.2.2,59.95906793071105,2023-11-09 18h02.57.998173 +0800,
8,test/rightstar.PNG,space,0,4,4,5,,,,,,,,,,,,,58.56568805729603,,,,,,,,,,,,,,,,58.46192419513227,58.56568805729603,58.97668506341711,58.97669648126089,59.47261009505655,59.9757262650071,59.756720002019165,59.75674193629811,61.08533095521693,61.08533095521693,,61.32781951634024,space,0.2305157500140922,None,,,,,,,,,,,,,,,,,,,,,,,,,,,,,,,,,,,,,,,,,,,,,,,,,,,,,,,,,,,,,,,,,,,,,,,,,,,,,,,,,,,,,,,,,,,,005,001,2023-11-09_18h02.45.511,untitled,2023.2.2,59.95906793071105,2023-11-09 18h02.57.998173 +0800,
1,test/blank.PNG,space,0,5,5,2,,,,,,,,,,,,,61.42955821357623,,,,,,,,,,,,,,,,61.328588417979745,61.42955821357623,61.84337152101307,61.84338293885685,62.339238562024775,62.75210508983446,62.62293352050597,62.62294463788021,63.94427431189479,63.94427431189479,64.7392008230463,65.97372483717572,space,2.027302468297421,None,,,,,,,,,,,,,,,,,,,,,,,,,,,,,,,,,,,,,,,,,,,,,,,,,,,,,,,,,,,,,,,,,,,,,,,,,,,,,,,,,,,,,,,,,,,,005,001,2023-11-09_18h02.45.511,untitled,2023.2.2,59.95906793071105,2023-11-09 18h02.57.998173 +0800,
,,,,,,,,,,,,,,,,,,,,,,,,,,,,,,,,,,,,,,,,,,,,,,,,,,65.97417373871895,65.98941205315668,65.98941205315668,74.70686278516064,space,8.70111119657804,None,,,,,,,,,,,,,,,,,,,,,,,,,,,,,,,,,,,,,,,,,,,,,,,,,,,,,,,,,,,,,,,,,,,,,,,,,,,,,,,,,,,,,005,001,2023-11-09_18h02.45.511,untitled,2023.2.2,59.95906793071105,2023-11-09 18h02.57.998173 +0800,
,,,,,,,,,,,,,,,,,,,,,,,,,,,,,,,,,,,,,,,,,,,,,,,,,,,,,,,,,74.70689313258777,74.72309325013134,74.72309325013134,79.72389460248473,space,4.992365368598257,None,,,,,,,,,,,,,,,,,,,,,,,,,,,,,,,,,,,,,,,,,,,,,,,,,,,,,,,,,,,,,,,,,,,,,,,,,,,,,,005,001,2023-11-09_18h02.45.511,untitled,2023.2.2,59.95906793071105,2023-11-09 18h02.57.998173 +0800,
1,condition_1/leftstar.PNG,left,,,,,0,0,0,0,,,,,,,,,79.89092173248355,,,,,,,,,,,,,,,,,,,,,,,,,,,,,,,,,,,,,,,,,,,,,79.73747943285775,79.89092173248355,80.22675537329746,80.22676739208032,80.73927353668319,81.24368983847967,81.02315869240465,81.0231734154138,82.35203946727961,82.35203946727961,83.12744447021805,left,1,0.7632173560841693,None,,,,,,,,,,,,,,,,,,,,,,,,,,,,,,,,,,,,,,,,,,,,,,,,,,,,,,,,,,,,,,,005,001,2023-11-09_18h02.45.511,untitled,2023.2.2,59.95906793071105,2023-11-09 18h02.57.998173 +0800,
2,condition_1/rightstar.PNG,right,,,,,0,1,1,13,,,,,,,,,83.22810898872763,,,,,,,,,,,,,,,,,,,,,,,,,,,,,,,,,,,,,,,,,,,,,83.12822058312736,83.22810898872763,83.64360582718678,83.64363947977904,84.13934216393386,84.64201844642821,84.42327419290882,84.42329372343102,85.75199301468342,85.75199301468342,86.9901650299089,right,1,1.2265753920225961,None,86.55585248626562,,,,,,,,,,,,,,,,,,,,,,,,,,,,,,,,,,,,,,,,,,,,,,,,,,,,,,,,,,,,,,005,001,2023-11-09_18h02.45.511,untitled,2023.2.2,59.95906793071105,2023-11-09 18h02.57.998173 +0800,
1,condition_1/blank.PNG,space,,,,,0,2,2,8,,,,,,,,,87.0869760261337,,,,,,,,,,,,,,,,,,,,,,,,,,,,,,,,,,,,,,,,,,,,,86.99091109586061,87.0869760261337,87.49343504028093,87.49345096516845,88.00596191728437,88.4118596542678,88.2900402749417,88.29006010593366,89.6110851038004,89.6110851038004,91.72361216108538,space,1,2.104141852887551,None,90.42260054012422,,,,,,,,,,,,,,,,,,,,,,,,,,,,,,,,,,,,,,,,,,,,,,,,,,,,,,,,,,,,,,005,001,2023-11-09_18h02.45.511,untitled,2023.2.2,59.95906793071105,2023-11-09 18h02.57.998173 +0800,
9,condition_1/rightstar.PNG,space,,,,,0,3,3,15,,,,,,,,,91.82966530093245,,,,,,,,,,,,,,,,,,,,,,,,,,,,,,,,,,,,,,,,,,,,,91.72436633971574,91.82966530093245,92.22668356106942,92.22669557985228,92.7393934240431,93.25076769976135,93.02346547183947,93.02348980987495,94.3520617020281,94.3520617020281,94.91082333470763,space,1,0.5478503805748005,None,,,,,,,,,,,,,,,,,,,,,,,,,,,,,,,,,,,,,,,,,,,,,,,,,,,,,,,,,,,,,,,005,001,2023-11-09_18h02.45.511,untitled,2023.2.2,59.95906793071105,2023-11-09 18h02.57.998173 +0800,
1,condition_1/leftstar.PNG,left,,,,,0,4,4,16,,,,,,,,,95.00888428435974,,,,,,,,,,,,,,,,,,,,,,,,,,,,,,,,,,,,,,,,,,,,,94.91140474333292,95.00888428435974,95.42670375262469,95.42671607187731,95.92262307534224,96.41861991920973,96.20667108557268,96.20669031562534,97.5355479543432,97.5355479543432,97.94529500703698,left,1,0.40361987714391034,None,,,,,,,,,,,,,,,,,,,,,,,,,,,,,,,,,,,,,,,,,,,,,,,,,,,,,,,,,,,,,,,005,001,2023-11-09_18h02.45.511,untitled,2023.2.2,59.95906793071105,2023-11-09 18h02.57.998173 +0800,
2,condition_1/blank.PNG,space,,,,,0,5,5,20,,,,,,,,,98.04294701759909,,,,,,,,,,,,,,,,,,,,,,,,,,,,,,,,,,,,,,,,,,,,,97.94638661299882,98.04294701759909,98.46004926499131,98.46006158424393,98.95598871917036,99.33798981047585,99.24002651343517,99.24004874818365,100.56111040333849,100.56111040333849,101.11076510370413,space,1,0.5391463779594687,None,,,,,,,,,,,,,,,,,,,,,,,,,,,,,,,,,,,,,,,,,,,,,,,,,,,,,,,,,,,,,,,005,001,2023-11-09_18h02.45.511,untitled,2023.2.2,59.95906793071105,2023-11-09 18h02.57.998173 +0800,
8,condition_1/rightstar.PNG,space,,,,,0,6,6,14,,,,,,,,,101.21087826054577,,,,,,,,,,,,,,,,,,,,,,,,,,,,,,,,,,,,,,,,,,,,,101.11124104750911,101.21087826054577,101.62663200049042,101.6266440192735,102.12268232794213,102.62851924988377,102.40679734288756,102.4068192771665,103.73536322564905,103.73536322564905,104.27756718199203,space,1,0.5401364252054464,None,,,,,,,,,,,,,,,,,,,,,,,,,,,,,,,,,,,,,,,,,,,,,,,,,,,,,,,,,,,,,,,005,001,2023-11-09_18h02.45.511,untitled,2023.2.2,59.95906793071105,2023-11-09 18h02.57.998173 +0800,
2,condition_1/leftstar.PNG,left,,,,,0,7,7,22,,,,,,,,,104.37384724847993,,,,,,,,,,,,,,,,,,,,,,,,,,,,,,,,,,,,,,,,,,,,,104.27816631832229,104.37384724847993,104.79338990975111,104.7934028299428,105.28929000241578,105.78362524954014,105.57306488580366,105.57307570270837,106.90210521002223,106.90210521002223,107.27817533240955,left,1,0.37323068491446065,None,,,,,,,,,,,,,,,,,,,,,,,,,,,,,,,,,,,,,,,,,,,,,,,,,,,,,,,,,,,,,,,005,001,2023-11-09_18h02.45.511,untitled,2023.2.2,59.95906793071105,2023-11-09 18h02.57.998173 +0800,
8,condition_1/leftstar.PNG,space,,,,,0,8,8,18,,,,,,,,,107.37741201950416,,,,,,,,,,,,,,,,,,,,,,,,,,,,,,,,,,,,,,,,,,,,,107.27870025275502,107.37741201950416,107.79341334637775,107.79342506469129,108.28921698830936,108.79391723385311,108.5730955337001,108.57310875436133,109.9020889846654,109.9020889846654,111.40741661067932,space,1,1.4938635098933446,None,110.70609508539951,,,,,,,,,,,,,,,,,,,,,,,,,,,,,,,,,,,,,,,,,,,,,,,,,,,,,,,,,,,,,,005,001,2023-11-09_18h02.45.511,untitled,2023.2.2,59.95906793071105,2023-11-09 18h02.57.998173 +0800,
1,condition_1/rightstar.PNG,right,,,,,0,9,9,21,,,,,,,,,111.51313352507304,,,,,,,,,,,,,,,,,,,,,,,,,,,,,,,,,,,,,,,,,,,,,111.40851843260657,111.51313352507304,111.91000425464927,111.91001597296258,112.4226762584567,112.92401004289513,112.70647427800168,112.70648779913267,114.03551850832491,114.03551850832491,114.6442413203356,right,1,0.6001600300951395,None,,,,,,,,,,,,,,,,,,,,,,,,,,,,,,,,,,,,,,,,,,,,,,,,,,,,,,,,,,,,,,,005,001,2023-11-09_18h02.45.511,untitled,2023.2.2,59.95906793071105,2023-11-09 18h02.57.998173 +0800,
1,condition_1/rightstar.PNG,right,,,,,0,10,10,12,,,,,,,,,114.73934685125914,,,,,,,,,,,,,,,,,,,,,,,,,,,,,,,,,,,,,,,,,,,,,114.64471666320128,114.73934685125914,115.16006945654681,115.1600817757992,115.6560086102561,116.1605123486986,115.94008576603528,115.94010709937493,117.2687931699661,117.2687931699661,117.67800087977503,right,1,0.4064587136776936,None,,,,,,,,,,,,,,,,,,,,,,,,,,,,,,,,,,,,,,,,,,,,,,,,,,,,,,,,,,,,,,,005,001,2023-11-09_18h02.45.511,untitled,2023.2.2,59.95906793071105,2023-11-09 18h02.57.998173 +0800,
2,condition_1/rightstar.PNG,left,,,,,0,11,11,5,,,,,,,,,117.77436117163916,,,,,,,,,,,,,,,,,,,,,,,,,,,,,,,,,,,,,,,,,,,,,117.67890138708776,117.77436117163916,118.19339123181726,118.19340355106965,118.6894310428338,119.19280411426985,118.97334083706028,118.97336066805201,120.30201458839883,120.30201458839883,120.84468998150328,right,0,0.5409690263943503,None,,,,,,,,,,,,,,,,,,,,,,,,,,,,,,,,,,,,,,,,,,,,,,,,,,,,,,,,,,,,,,,005,001,2023-11-09_18h02.45.511,untitled,2023.2.2,59.95906793071105,2023-11-09 18h02.57.998173 +0800,
8,condition_1/rightstar.PNG,space,,,,,0,12,12,23,,,,,,,,,120.94122995417251,,,,,,,,,,,,,,,,,,,,,,,,,,,,,,,,,,,,,,,,,,,,,120.84549974700462,120.94122995417251,121.36016807066085,121.36018159179184,121.85604382529027,122.36311387436285,122.1400464646149,122.14006809842431,123.46892363385518,123.46892363385518,124.16132992640905,space,1,0.6781691427363512,None,,,,,,,,,,,,,,,,,,,,,,,,,,,,,,,,,,,,,,,,,,,,,,,,,,,,,,,,,,,,,,,005,001,2023-11-09_18h02.45.511,untitled,2023.2.2,59.95906793071105,2023-11-09 18h02.57.998173 +0800,
9,condition_1/leftstar.PNG,space,,,,,0,13,13,19,,,,,,,,,124.26577615497513,,,,,,,,,,,,,,,,,,,,,,,,,,,,,,,,,,,,,,,,,,,,,124.16228391730601,124.26577615497513,124.67663614697062,124.67664906716232,125.17282919746981,125.68431885350424,125.45663082264969,125.45664764894582,126.78538329701655,126.78538329701655,128.17373691605258,space,1,1.3772440570123763,None,127.58929625218298,,,,,,,,,,,,,,,,,,,,,,,,,,,,,,,,,,,,,,,,,,,,,,,,,,,,,,,,,,,,,,005,001,2023-11-09_18h02.45.511,untitled,2023.2.2,59.95906793071105,2023-11-09 18h02.57.998173 +0800,
9,condition_1/leftstar.PNG,space,,,,,0,14,14,24,,,,,,,,,128.2761468623164,,,,,,,,,,,,,,,,,,,,,,,,,,,,,,,,,,,,,,,,,,,,,128.17455178953674,128.2761468623164,128.67666529251915,128.6766764098934,129.18936073295345,129.69349669663757,129.47334774786054,129.47336968213926,130.80206176212187,130.80206176212187,134.59058857182004,space,1,3.7852513908735546,None,131.60602850134205,,,,,,,,,,,,,,,,,,,,,,,,,,,,,,,,,,,,,,,,,,,,,,,,,,,,,,,,,,,,,,005,001,2023-11-09_18h02.45.511,untitled,2023.2.2,59.95906793071105,2023-11-09 18h02.57.998173 +0800,
8,condition_1/rightstar.PNG,space,,,,,0,15,15,6,,,,,,,,,134.6881873992677,,,,,,,,,,,,,,,,,,,,,,,,,,,,,,,,,,,,,,,,,,,,,134.59154917304772,134.6881873992677,135.09344904216323,135.09346106094608,135.60605584407313,136.09899541002687,135.88991275565468,135.88992567584637,137.2187977371036,137.2187977371036,143.80712557585002,space,1,6.584515180323933,None,138.0226454903725,,,,,,,,,,,,,,,,,,,,,,,,,,,,,,,,,,,,,,,,,,,,,,,,,,,,,,,,,,,,,,005,001,2023-11-09_18h02.45.511,untitled,2023.2.2,59.95906793071105,2023-11-09 18h02.57.998173 +0800,
2,condition_1/blank.PNG,space,,,,,0,16,16,9,,,,,,,,,143.929609894343,,,,,,,,,,,,,,,,,,,,,,,,,,,,,,,,,,,,,,,,,,,,,143.8079750033353,143.929609894343,144.3101431917803,144.31015491009362,144.8226814866273,145.22789054734744,145.10646298034567,145.10647379725037,146.42783652291814,146.42783652291814,151.4737311470367,space,1,5.0391076173843885,None,147.2394460062187,,,,,,,,,,,,,,,,,,,,,,,,,,,,,,,,,,,,,,,,,,,,,,,,,,,,,,,,,,,,,,005,001,2023-11-09_18h02.45.511,untitled,2023.2.2,59.95906793071105,2023-11-09 18h02.57.998173 +0800,
9,condition_1/leftstar.PNG,space,,,,,0,17,17,3,,,,,,,,,151.58014815553747,,,,,,,,,,,,,,,,,,,,,,,,,,,,,,,,,,,,,,,,,,,,,151.47455473413856,151.58014815553747,151.97679864091606,151.97681065969914,152.48951331140324,152.99224728405557,152.77326836379893,152.77328038258202,154.10225610584234,154.10225610584234,155.17367051227666,space,1,1.0604508726237327,None,154.90600800931702,,,,,,,,,,,,,,,,,,,,,,,,,,,,,,,,,,,,,,,,,,,,,,,,,,,,,,,,,,,,,,005,001,2023-11-09_18h02.45.511,untitled,2023.2.2,59.95906793071105,2023-11-09 18h02.57.998173 +0800,
8,condition_1/blank.PNG,space,,,,,0,18,18,10,,,,,,,,,155.27824594275944,,,,,,,,,,,,,,,,,,,,,,,,,,,,,,,,,,,,,,,,,,,,,155.17438893502776,155.27824594275944,155.67687592169045,155.6768963536215,156.18943044189473,156.55816760433208,156.47356709064934,156.47358932539782,157.79445717767726,157.79445717767726,158.34415244143565,space,1,0.5360975131936812,None,,,,,,,,,,,,,,,,,,,,,,,,,,,,,,,,,,,,,,,,,,,,,,,,,,,,,,,,,,,,,,,005,001,2023-11-09_18h02.45.511,untitled,2023.2.2,59.95906793071105,2023-11-09 18h02.57.998173 +0800,
9,condition_1/blank.PNG,space,,,,,0,19,19,11,,,,,,,,,158.4399836063801,,,,,,,,,,,,,,,,,,,,,,,,,,,,,,,,,,,,,,,,,,,,,158.3446259814839,158.4399836063801,158.86018279367,158.86019601433122,159.35609340276983,159.7084982410513,159.6402988590571,159.6403219952142,160.9610594436988,160.9610594436988,163.75720255615488,space,1,2.794808727078589,None,161.75603252763426,,,,,,,,,,,,,,,,,,,,,,,,,,,,,,,,,,,,,,,,,,,,,,,,,,,,,,,,,,,,,,005,001,2023-11-09_18h02.45.511,untitled,2023.2.2,59.95906793071105,2023-11-09 18h02.57.998173 +0800,
1,condition_1/rightstar.PNG,right,,,,,0,20,20,4,,,,,,,,,163.85520912081415,,,,,,,,,,,,,,,,,,,,,,,,,,,,,,,,,,,,,,,,,,,,,163.75802223715232,163.85520912081415,164.26018051010124,164.26019252888432,164.7727536594191,165.27762877825467,165.05679926589278,165.0568196978238,166.38552439752857,166.38552439752857,167.0943504508848,right,1,0.7066999306516664,None,,,,,,,,,,,,,,,,,,,,,,,,,,,,,,,,,,,,,,,,,,,,,,,,,,,,,,,,,,,,,,,005,001,2023-11-09_18h02.45.511,untitled,2023.2.2,59.95906793071105,2023-11-09 18h02.57.998173 +0800,
2,condition_1/leftstar.PNG,left,,,,,0,21,21,17,,,,,,,,,167.19531393662032,,,,,,,,,,,,,,,,,,,,,,,,,,,,,,,,,,,,,,,,,,,,,167.0949117280486,167.19531393662032,167.61017768568718,167.6101900049398,168.10618865162473,168.60067954198826,168.38967268046508,168.3896834973698,169.7189260376117,169.7189260376117,170.24424450531296,left,1,0.5168133759439115,None,,,,,,,,,,,,,,,,,,,,,,,,,,,,,,,,,,,,,,,,,,,,,,,,,,,,,,,,,,,,,,,005,001,2023-11-09_18h02.45.511,untitled,2023.2.2,59.95906793071105,2023-11-09 18h02.57.998173 +0800,
9,condition_1/rightstar.PNG,space,,,,,0,22,22,7,,,,,,,,,170.3428610232072,,,,,,,,,,,,,,,,,,,,,,,,,,,,,,,,,,,,,,,,,,,,,170.2448211064252,170.3428610232072,170.7601802096317,170.76019162747548,171.25620830233493,171.77045386530085,171.54002164582812,171.54003636883726,172.8687771248908,172.8687771248908,173.51126911136726,space,1,0.6302944241258501,None,,,,,,,,,,,,,,,,,,,,,,,,,,,,,,,,,,,,,,,,,,,,,,,,,,,,,,,,,,,,,,,005,001,2023-11-09_18h02.45.511,untitled,2023.2.2,59.95906793071105,2023-11-09 18h02.57.998173 +0800,
2,condition_1/leftstar.PNG,left,,,,,0,23,23,1,,,,,,,,,173.61008634293694,,,,,,,,,,,,,,,,,,,,,,,,,,,,,,,,,,,,,,,,,,,,,173.51207467029485,173.61008634293694,174.02689292826835,174.02690464658167,174.5228807580488,175.02807437463275,174.80686326591194,174.80688489972135,176.13552169330228,176.13552169330228,176.99070437279397,left,1,0.8520953546201326,None,176.93955273301117,,,,,,,,,,,,,,,,,,,,,,,,,,,,,,,,,,,,,,,,,,,,,,,,,,,,,,,,,,,,,,005,001,2023-11-09_18h02.45.511,untitled,2023.2.2,59.95906793071105,2023-11-09 18h02.57.998173 +0800,
8,condition_1/leftstar.PNG,space,,,,,0,24,24,2,,,,,,,,,177.0915864312749,,,,,,,,,,,,,,,,,,,,,,,,,,,,,,,,,,,,,,,,,,,,,176.9916682791868,177.0915864312749,177.49353479617957,177.49354831731034,178.00607519431378,178.50841915745946,178.2901274111182,178.2901454392927,179.61882009203987,179.61882009203987,180.24480968858143,space,1,0.6164064199531367,None,,,,,,,,,,,,,,,,,,,,,,,,,,,,,,,,,,,,,,,,,,,,,,,,,,,,,,,,,,,,,,,005,001,2023-11-09_18h02.45.511,untitled,2023.2.2,59.95906793071105,2023-11-09 18h02.57.998173 +0800,
8,condition_1/blank.PNG,space,,,,,1,0,25,10,,,,,,,,,180.34372126759718,,,,,,,,,,,,,,,,,,,,,,,,,,,,,,,,,,,,,,,,,,,,,180.24578801751386,180.34372126759718,180.76010749599482,180.76011921430813,181.25623023661387,181.65473461926308,181.5402328759385,181.54025511068699,182.8610799958176,182.8610799958176,185.85728957214337,space,1,2.990820354049447,None,183.65603445063948,,,,,,,,,,,,,,,,,,,,,,,,,,,,,,,,,,,,,,,,,,,,,,,,,,,,,,,,,,,,,,005,001,2023-11-09_18h02.45.511,untitled,2023.2.2,59.95906793071105,2023-11-09 18h02.57.998173 +0800,
1,condition_1/blank.PNG,space,,,,,1,1,26,8,,,,,,,,,185.96347041155923,,,,,,,,,,,,,,,,,,,,,,,,,,,,,,,,,,,,,,,,,,,,,185.8582108118569,185.96347041155923,186.36020623029685,186.36022005189716,186.87269314484683,187.248225426697,187.15672823488558,187.15674446024263,188.47775443463047,188.47775443463047,190.35705640775404,space,1,1.8700814633107257,None,189.28941650010643,,,,,,,,,,,,,,,,,,,,,,,,,,,,,,,,,,,,,,,,,,,,,,,,,,,,,,,,,,,,,,005,001,2023-11-09_18h02.45.511,untitled,2023.2.2,59.95906793071105,2023-11-09 18h02.57.998173 +0800,
1,condition_1/leftstar.PNG,left,,,,,1,2,27,16,,,,,,,,,190.46234395112697,,,,,,,,,,,,,,,,,,,,,,,,,,,,,,,,,,,,,,,,,,,,,190.35774087744335,190.46234395112697,190.86016867160015,190.86018549789628,191.3727835861887,191.8729569571326,191.65693135231754,191.65694367156993,192.9859671694926,192.9859671694926,193.3611788503074,space,0,0.36957697489651764,None,,,,,,,,,,,,,,,,,,,,,,,,,,,,,,,,,,,,,,,,,,,,,,,,,,,,,,,,,,,,,,,005,001,2023-11-09_18h02.45.511,untitled,2023.2.2,59.95906793071105,2023-11-09 18h02.57.998173 +0800,
8,condition_1/rightstar.PNG,space,,,,,1,3,28,23,,,,,,,,,193.4594462225566,,,,,,,,,,,,,,,,,,,,,,,,,,,,,,,,,,,,,,,,,,,,,193.36170467206148,193.4594462225566,193.87681919303486,193.87683211322656,194.37280672234579,194.87775876139244,194.65675617855595,194.65677570907815,195.98560119755166,195.98560119755166,198.57502905540787,space,1,2.577041901083021,None,196.78944324189843,,,,,,,,,,,,,,,,,,,,,,,,,,,,,,,,,,,,,,,,,,,,,,,,,,,,,,,,,,,,,,005,001,2023-11-09_18h02.45.511,untitled,2023.2.2,59.95906793071105,2023-11-09 18h02.57.998173 +0800,
1,condition_1/rightstar.PNG,right,,,,,1,4,29,21,,,,,,,,,198.6869756054764,,,,,,,,,,,,,,,,,,,,,,,,,,,,,,,,,,,,,,,,,,,,,198.57671468971716,198.6869756054764,199.07680483058925,199.0768159479635,199.5894738297011,200.09364314550794,199.8735720183504,199.87359214981188,201.20223134714934,201.20223134714934,201.66172744765527,right,1,0.45689042836147564,None,,,,,,,,,,,,,,,,,,,,,,,,,,,,,,,,,,,,,,,,,,,,,,,,,,,,,,,,,,,,,,,005,001,2023-11-09_18h02.45.511,untitled,2023.2.2,59.95906793071105,2023-11-09 18h02.57.998173 +0800,
8,condition_1/leftstar.PNG,space,,,,,1,5,30,18,,,,,,,,,201.76780372365943,,,,,,,,,,,,,,,,,,,,,,,,,,,,,,,,,,,,,,,,,,,,,201.66271178597913,201.76780372365943,202.17692309541349,202.17693481372703,202.6727330472063,203.17392801470146,202.9566936207907,202.95670984614753,204.28545480877528,204.28545480877528,206.44161245194005,space,1,2.1508940171700033,None,205.089385792116,,,,,,,,,,,,,,,,,,,,,,,,,,,,,,,,,,,,,,,,,,,,,,,,,,,,,,,,,,,,,,005,001,2023-11-09_18h02.45.511,untitled,2023.2.2,59.95906793071105,2023-11-09 18h02.57.998173 +0800,
2,condition_1/leftstar.PNG,left,,,,,1,6,31,22,,,,,,,,,206.5452176661688,,,,,,,,,,,,,,,,,,,,,,,,,,,,,,,,,,,,,,,,,,,,,206.44324820830002,206.5452176661688,206.943447119158,206.94345883747133,207.4561548788447,207.95261264303872,207.73983391243837,207.73985043826497,209.0688838516835,209.0688838516835,209.7613523414393,left,1,0.6782036967372278,None,,,,,,,,,,,,,,,,,,,,,,,,,,,,,,,,,,,,,,,,,,,,,,,,,,,,,,,,,,,,,,,005,001,2023-11-09_18h02.45.511,untitled,2023.2.2,59.95906793071105,2023-11-09 18h02.57.998173 +0800,
9,condition_1/blank.PNG,space,,,,,1,7,32,11,,,,,,,,,209.85781359108023,,,,,,,,,,,,,,,,,,,,,,,,,,,,,,,,,,,,,,,,,,,,,209.76215549661015,209.85781359108023,210.27679557612646,210.27680759490931,210.7727515561321,211.17997526534486,211.0568500452507,211.0568722799992,212.37789938115293,212.37789938115293,216.60723879278544,space,1,4.217944403513911,None,213.1892982352822,,,,,,,,,,,,,,,,,,,,,,,,,,,,,,,,,,,,,,,,,,,,,,,,,,,,,,,,,,,,,,005,001,2023-11-09_18h02.45.511,untitled,2023.2.2,59.95906793071105,2023-11-09 18h02.57.998173 +0800,
8,condition_1/rightstar.PNG,space,,,,,1,8,33,6,,,,,,,,,216.71483935093784,,,,,,,,,,,,,,,,,,,,,,,,,,,,,,,,,,,,,,,,,,,,,216.6080578728438,216.71483935093784,217.11019090634863,217.11020202372265,217.62283797118153,218.12944018912776,217.9068294931319,217.90684752130642,219.23568112245835,219.23568112245835,220.84053749199256,space,1,1.5921020370635688,None,220.0393894578449,,,,,,,,,,,,,,,,,,,,,,,,,,,,,,,,,,,,,,,,,,,,,,,,,,,,,,,,,,,,,,005,001,2023-11-09_18h02.45.511,untitled,2023.2.2,59.95906793071105,2023-11-09 18h02.57.998173 +0800,
1,condition_1/leftstar.PNG,left,,,,,1,9,34,0,,,,,,,,,220.9483591957512,,,,,,,,,,,,,,,,,,,,,,,,,,,,,,,,,,,,,,,,,,,,,220.84136198050328,220.9483591957512,221.3436521595952,221.34366357743897,221.85618865162473,222.35943823006596,222.140109863695,222.14012819233903,223.46891552117654,223.46891552117654,225.22378643343836,left,1,1.7430537443917729,None,224.2728041383075,,,,,,,,,,,,,,,,,,,,,,,,,,,,,,,,,,,,,,,,,,,,,,,,,,,,,,,,,,,,,,005,001,2023-11-09_18h02.45.511,untitled,2023.2.2,59.95906793071105,2023-11-09 18h02.57.998173 +0800,
2,condition_1/blank.PNG,space,,,,,1,10,35,20,,,,,,,,,225.3305754232715,,,,,,,,,,,,,,,,,,,,,,,,,,,,,,,,,,,,,,,,,,,,,225.22453159798147,225.3305754232715,225.72684100712604,225.72685242496982,226.239490776185,226.6342516084137,226.52340297416822,226.52341829811644,227.84456738991707,227.84456738991707,229.00721036836376,space,1,1.159574583158701,None,228.65608973704116,,,,,,,,,,,,,,,,,,,,,,,,,,,,,,,,,,,,,,,,,,,,,,,,,,,,,,,,,,,,,,005,001,2023-11-09_18h02.45.511,untitled,2023.2.2,59.95906793071105,2023-11-09 18h02.57.998173 +0800,
8,condition_1/rightstar.PNG,space,,,,,1,11,36,14,,,,,,,,,229.11825881487607,,,,,,,,,,,,,,,,,,,,,,,,,,,,,,,,,,,,,,,,,,,,,229.00810546722437,229.11825881487607,229.51030730826142,229.51031962751404,230.02296188483365,230.52977803711656,230.30703543497793,230.3070747964921,231.63565630367157,231.63565630367157,232.42792185627718,space,1,0.7913764631364302,None,232.5286287409965,,,,,,,,,,,,,,,,,,,,,,,,,,,,,,,,,,,,,,,,,,,,,,,,,,,,,,,,,,,,,,005,001,2023-11-09_18h02.45.511,untitled,2023.2.2,59.95906793071105,2023-11-09 18h02.57.998173 +0800,
8,condition_1/leftstar.PNG,space,,,,,1,12,37,2,,,,,,,,,232.5286287409965,,,,,,,,,,,,,,,,,,,,,,,,,,,,,,,,,,,,,,,,,,,,,232.42845128366616,232.5286287409965,232.94351863091651,232.9435300487603,233.43954371892391,233.9380936527607,233.7236187714161,233.72364340992112,235.052235133066,235.052235133066,236.07387104567033,space,1,1.0157794601402657,None,235.85613306475375,,,,,,,,,,,,,,,,,,,,,,,,,,,,,,,,,,,,,,,,,,,,,,,,,,,,,,,,,,,,,,005,001,2023-11-09_18h02.45.511,untitled,2023.2.2,59.95906793071105,2023-11-09 18h02.57.998173 +0800,
1,condition_1/rightstar.PNG,right,,,,,1,13,38,12,,,,,,,,,236.17658356479524,,,,,,,,,,,,,,,,,,,,,,,,,,,,,,,,,,,,,,,,,,,,,236.07469222901568,236.17658356479524,236.57695686819375,236.5769694879159,237.08954263723354,237.5938261314784,237.37355519205425,237.37357382116784,238.70233050210868,238.70233050210868,239.11140630577484,right,1,0.40608673234532944,None,,,,,,,,,,,,,,,,,,,,,,,,,,,,,,,,,,,,,,,,,,,,,,,,,,,,,,,,,,,,,,,005,001,2023-11-09_18h02.45.511,untitled,2023.2.2,59.95906793071105,2023-11-09 18h02.57.998173 +0800,
2,condition_1/rightstar.PNG,left,,,,,1,14,39,5,,,,,,,,,239.2071380152904,,,,,,,,,,,,,,,,,,,,,,,,,,,,,,,,,,,,,,,,,,,,,239.11218211821438,239.2071380152904,239.62691684564652,239.62692796302076,240.12287763316522,240.6208001865316,240.4066230705348,240.40663478884812,241.73548852146132,241.73548852146132,242.34442646968682,right,0,0.5950622633049534,None,,,,,,,,,,,,,,,,,,,,,,,,,,,,,,,,,,,,,,,,,,,,,,,,,,,,,,,,,,,,,,,005,001,2023-11-09_18h02.45.511,untitled,2023.2.2,59.95906793071105,2023-11-09 18h02.57.998173 +0800,
2,condition_1/leftstar.PNG,left,,,,,1,15,40,17,,,,,,,,,242.44138890257705,,,,,,,,,,,,,,,,,,,,,,,,,,,,,,,,,,,,,,,,,,,,,242.34503011306083,242.44138890257705,242.8602534040199,242.8602657232725,243.35626196620092,243.8616253480941,243.64022434260278,243.64024507500335,244.96895698597768,244.96895698597768,245.9406876065916,left,1,0.9623568713184341,None,245.77285371578705,,,,,,,,,,,,,,,,,,,,,,,,,,,,,,,,,,,,,,,,,,,,,,,,,,,,,,,,,,,,,,005,001,2023-11-09_18h02.45.511,untitled,2023.2.2,59.95906793071105,2023-11-09 18h02.57.998173 +0800,
2,condition_1/leftstar.PNG,left,,,,,1,16,41,1,,,,,,,,,246.04446198519054,,,,,,,,,,,,,,,,,,,,,,,,,,,,,,,,,,,,,,,,,,,,,245.94160584160932,246.04446198519054,246.44362469667612,246.44363671545898,246.9561759117148,247.45960727424836,247.2402164102059,247.24023233509342,248.5688817483965,248.5688817483965,249.04465398524826,left,1,0.4664838209153004,None,,,,,,,,,,,,,,,,,,,,,,,,,,,,,,,,,,,,,,,,,,,,,,,,,,,,,,,,,,,,,,,005,001,2023-11-09_18h02.45.511,untitled,2023.2.2,59.95906793071105,2023-11-09 18h02.57.998173 +0800,
2,condition_1/blank.PNG,space,,,,,1,17,42,9,,,,,,,,,249.13974028611915,,,,,,,,,,,,,,,,,,,,,,,,,,,,,,,,,,,,,,,,,,,,,249.04546855826288,249.13974028611915,249.56025286317458,249.56026488195766,250.05631160377447,250.46177786644967,250.34019285339127,250.34021358579207,251.6612812503381,251.6612812503381,252.37772841396531,space,1,0.7014525300139667,None,,,,,,,,,,,,,,,,,,,,,,,,,,,,,,,,,,,,,,,,,,,,,,,,,,,,,,,,,,,,,,,005,001,2023-11-09_18h02.45.511,untitled,2023.2.2,59.95906793071105,2023-11-09 18h02.57.998173 +0800,
9,condition_1/rightstar.PNG,space,,,,,1,18,43,15,,,,,,,,,252.4709860570099,,,,,,,,,,,,,,,,,,,,,,,,,,,,,,,,,,,,,,,,,,,,,252.3782692591983,252.4709860570099,252.89367343284084,252.89368545162392,253.3895624081315,253.89007561016365,253.67358457797854,253.6736044089705,255.00246685520142,255.00246685520142,256.6571690237504,space,1,1.641499835943705,None,255.80615836429183,,,,,,,,,,,,,,,,,,,,,,,,,,,,,,,,,,,,,,,,,,,,,,,,,,,,,,,,,,,,,,005,001,2023-11-09_18h02.45.511,untitled,2023.2.2,59.95906793071105,2023-11-09 18h02.57.998173 +0800,
9,condition_1/rightstar.PNG,space,,,,,1,19,44,7,,,,,,,,,256.76034516742766,,,,,,,,,,,,,,,,,,,,,,,,,,,,,,,,,,,,,,,,,,,,,256.6578429770045,256.76034516742766,257.16031343784084,257.16032515615416,257.6729163336463,258.17900955613436,257.9567831607237,257.95679998701985,259.2856813628339,259.2856813628339,260.04487603226335,space,1,0.7505468546244174,None,,,,,,,,,,,,,,,,,,,,,,,,,,,,,,,,,,,,,,,,,,,,,,,,,,,,,,,,,,,,,,,005,001,2023-11-09_18h02.45.511,untitled,2023.2.2,59.95906793071105,2023-11-09 18h02.57.998173 +0800,
1,condition_1/rightstar.PNG,right,,,,,1,20,45,4,,,,,,,,,260.15539805608205,,,,,,,,,,,,,,,,,,,,,,,,,,,,,,,,,,,,,,,,,,,,,260.0458510560304,260.15539805608205,260.56031475990676,260.56032768009845,261.05634976341025,261.577690013954,261.34032746376056,261.3403496985088,262.66896485828056,262.66896485828056,263.0942675212823,right,1,0.41489800259842013,None,,,,,,,,,,,,,,,,,,,,,,,,,,,,,,,,,,,,,,,,,,,,,,,,,,,,,,,,,,,,,,,005,001,2023-11-09_18h02.45.511,untitled,2023.2.2,59.95906793071105,2023-11-09 18h02.57.998173 +0800,
9,condition_1/leftstar.PNG,space,,,,,1,21,46,24,,,,,,,,,263.19181677125016,,,,,,,,,,,,,,,,,,,,,,,,,,,,,,,,,,,,,,,,,,,,,263.09483480783774,263.19181677125016,263.6103098922997,263.61032100967395,264.10637614463894,264.60842985417617,264.3903472346585,264.3903700703461,265.71897591556103,265.71897591556103,265.84463739932767,space,1,0.11676908672870923,None,,,,,,,,,,,,,,,,,,,,,,,,,,,,,,,,,,,,,,,,,,,,,,,,,,,,,,,,,,,,,,,005,001,2023-11-09_18h02.45.511,untitled,2023.2.2,59.95906793071105,2023-11-09 18h02.57.998173 +0800,
9,condition_1/leftstar.PNG,space,,,,,1,22,47,3,,,,,,,,,265.94293602041284,,,,,,,,,,,,,,,,,,,,,,,,,,,,,,,,,,,,,,,,,,,,,265.84534170000893,265.94293602041284,266.36029877492547,266.36031019276925,266.85624634178293,267.3594872066067,267.1402784271261,267.1402994599962,268.46916881702737,268.46916881702737,268.862131639326,space,1,0.3815738235714434,None,,,,,,,,,,,,,,,,,,,,,,,,,,,,,,,,,,,,,,,,,,,,,,,,,,,,,,,,,,,,,,,005,001,2023-11-09_18h02.45.511,untitled,2023.2.2,59.95906793071105,2023-11-09 18h02.57.998173 +0800,
9,condition_1/leftstar.PNG,space,,,,,1,23,48,19,,,,,,,,,268.9604362698026,,,,,,,,,,,,,,,,,,,,,,,,,,,,,,,,,,,,,,,,,,,,,268.8633202969602,268.9604362698026,269.3769847517701,269.3769961696139,269.8728878491306,270.36801573499065,270.1568986011339,270.1569172302475,271.48572889712045,271.48572889712045,271.9283722601683,space,1,0.43765286389566427,None,,,,,,,,,,,,,,,,,,,,,,,,,,,,,,,,,,,,,,,,,,,,,,,,,,,,,,,,,,,,,,,005,001,2023-11-09_18h02.45.511,untitled,2023.2.2,59.95906793071105,2023-11-09 18h02.57.998173 +0800,
2,condition_1/rightstar.PNG,right,,,,,1,24,49,13,,,,,,,,,272.0257406274527,,,,,,,,,,,,,,,,,,,,,,,,,,,,,,,,,,,,,,,,,,,,,271.92932685200435,272.0257406274527,272.44369710984324,272.4437088281568,272.93968433868463,273.4489889799779,273.2237104146361,273.2237320484453,274.552279602563,274.552279602563,275.09482699562886,right,1,0.5385619646383475,None,,,,,,,,,,,,,,,,,,,,,,,,,,,,,,,,,,,,,,,,,,,,,,,,,,,,,,,,,,,,,,,005,001,2023-11-09_18h02.45.511,untitled,2023.2.2,59.95906793071105,2023-11-09 18h02.57.998173 +0800,
,,,,,,,,,,,,,,,,,,,,,,,,,,,,,,,,,,,,,,,,,,,,,,,,,,,,,,,,,,,,,,,,,,,,,,,,,,,,,,,,275.09543845121175,275.10657956254045,275.10657956254045,316.7739134719741,space,41.66550975865084,None,,,,,,,,,,,,,,,,,,,,,,,,,,,,,,,,,,,,,,,,,,,,,,,,,,,,,,,005,001,2023-11-09_18h02.45.511,untitled,2023.2.2,59.95906793071105,2023-11-09 18h02.57.998173 +0800,
,,,,,,,,,,,,,,,,,,,,,,,,,,,,,,,,,,,,,,,,,,,,,,,,,,,,,,,,,,,,,,,,,,,,,,,,,,,,,,,,,,,,,,,316.77394231705307,316.7897848758039,316.7897848758039,319.52407542507444,space,2.7180414551860395,None,,,,,,,,,,,,,,,,,,,,,,,,,,,,,,,,,,,,,,,,,,,,,,,,005,001,2023-11-09_18h02.45.511,untitled,2023.2.2,59.95906793071105,2023-11-09 18h02.57.998173 +0800,
8,test2/rightstar.PNG,right,,,,,,,,,0,0,0,1,,,,,319.6877784601777,,,,,,,,,,,,,,,,,,,,,,,,,,,,,,,,,,,,,,,,,,,,,,,,,,,,,,,,,,,,,,,,,,,,,,,,,,,319.5300133047929,319.6877784601777,320.04059734553175,320.0406135708886,320.52296759375554,321.023798692597,320.8070351345084,320.80706007348294,322.1558244224075,322.1558244224075,322.52785863747863,right,0.36009355420651445,None,,,,,,,,,,,,,,,,,,,,,,,,,,,,,,,,,,005,001,2023-11-09_18h02.45.511,untitled,2023.2.2,59.95906793071105,2023-11-09 18h02.57.998173 +0800,
2,test2/leftstar.PNG,space,,,,,,,,,0,1,1,4,,,,,322.6227102716125,,,,,,,,,,,,,,,,,,,,,,,,,,,,,,,,,,,,,,,,,,,,,,,,,,,,,,,,,,,,,,,,,,,,,,,,,,,322.5285449099854,322.6227102716125,323.04097383390763,323.04098615316025,323.53958536400705,324.04673203282096,323.823463608928,323.82347682958925,325.15238074062154,325.15238074062154,325.2949189994124,space,0.13912342208391237,None,,,,,,,,,,,,,,,,,,,,,,,,,,,,,,,,,,005,001,2023-11-09_18h02.45.511,untitled,2023.2.2,59.95906793071105,2023-11-09 18h02.57.998173 +0800,
8,test2/leftstar.PNG,left,,,,,,,,,0,2,2,5,,,,,325.4012299421536,,,,,,,,,,,,,,,,,,,,,,,,,,,,,,,,,,,,,,,,,,,,,,,,,,,,,,,,,,,,,,,,,,,,,,,,,,,325.2956187930499,325.4012299421536,325.80727160406286,325.8072878294199,326.30620673989324,326.8248577877507,326.59016881582556,326.59018173601703,327.919060407605,327.919060407605,328.42806818495956,left,0.5000991549593437,None,,,,,,,,,,,,,,,,,,,,,,,,,,,,,,,,,,005,001,2023-11-09_18h02.45.511,untitled,2023.2.2,59.95906793071105,2023-11-09 18h02.57.998173 +0800,
9,test2/rightstar.PNG,right,,,,,,,,,0,3,3,3,,,,,328.5266047779471,,,,,,,,,,,,,,,,,,,,,,,,,,,,,,,,,,,,,,,,,,,,,,,,,,,,,,,,,,,,,,,,,,,,,,,,,,,328.4286772367857,328.5266047779471,328.9406299164334,328.94064944695583,329.43960441377794,329.9332750222047,329.7236563301128,329.72367616110455,331.0526338561906,331.0526338561906,331.478586134411,right,0.41454705413616466,None,,,,,,,,,,,,,,,,,,,,,,,,,,,,,,,,,,005,001,2023-11-09_18h02.45.511,untitled,2023.2.2,59.95906793071105,2023-11-09 18h02.57.998173 +0800,
1,test2/leftstar.PNG,space,,,,,,,,,0,4,4,0,,,,,331.5735831958184,,,,,,,,,,,,,,,,,,,,,,,,,,,,,,,,,,,,,,,,,,,,,,,,,,,,,,,,,,,,,,,,,,,,,,,,,,,331.4796401816759,331.5735831958184,331.99053190325844,331.9905748704075,332.4895406541343,332.9834985114737,332.7734807957877,332.7734967206752,334.1023480495319,334.1023480495319,334.44481876276245,space,0.3324566632732058,None,,,,,,,,,,,,,,,,,,,,,,,,,,,,,,,,,,005,001,2023-11-09_18h02.45.511,untitled,2023.2.2,59.95906793071105,2023-11-09 18h02.57.998173 +0800,
1,test2/blank.PNG,space,,,,,,,,,0,5,5,2,,,,,334.5459369903285,,,,,,,,,,,,,,,,,,,,,,,,,,,,,,,,,,,,,,,,,,,,,,,,,,,,,,,,,,,,,,,,,,,,,,,,,,,334.44550383339083,334.5459369903285,334.9573450388268,334.957368775923,335.4564114798609,335.8725567316603,335.7404393586298,335.7404645980739,337.06130120151784,337.06130120151784,342.30738698437926,space,5.229365252015896,None,337.87309276938004,,,,,,,,,,,,,,,,,,,,,,,,,,,,,,,,,005,001,2023-11-09_18h02.45.511,untitled,2023.2.2,59.95906793071105,2023-11-09 18h02.57.998173 +0800,
,,,,,,,,,,,,,,,,,,,,,,,,,,,,,,,,,,,,,,,,,,,,,,,,,,,,,,,,,,,,,,,,,,,,,,,,,,,,,,,,,,,,,,,,,,,,,,,,,,,,,,,,,,,,,342.3079001864114,342.32326469807026,342.32326469807026,343.32289812519,345.42393732925825,space,3.0885555946833847,None,,,,,,,,,,,,,,,,,,,,,,,,,005,001,2023-11-09_18h02.45.511,untitled,2023.2.2,59.95906793071105,2023-11-09 18h02.57.998173 +0800,
,,,,,,,,,,,,,,,,,,,,,,,,,,,,,,,,,,,,,,,,,,,,,,,,,,,,,,,,,,,,,,,,,,,,,,,,,,,,,,,,,,,,,,,,,,,,,,,,,,,,,,,,,,,,,,,,,,,,,345.4239787940594,345.44009267683555,345.44009267683555,346.4396861415021,348.84081933245284,space,3.388104529758948,None,,,,,,,,,,,,,,,,,005,001,2023-11-09_18h02.45.511,untitled,2023.2.2,59.95906793071105,2023-11-09 18h02.57.998173 +0800,
9,condition_2/blank.PNG,space,,,,,,,,,,,,,0,0,0,11,349.0186588600666,,,,,,,,,,,,,,,,,,,,,,,,,,,,,,,,,,,,,,,,,,,,,,,,,,,,,,,,,,,,,,,,,,,,,,,,,,,,,,,,,,,,,,,,,,,,,,,,,,,,,,,,,,348.8664890490859,349.0186588600666,349.34377324883326,349.34378767137287,349.8564377409016,350.2625301821688,350.1403325116494,350.1403535445195,351.46162252368003,351.46162252368003,352.27302227921814,353.7406716216103,space,1,2.2703760436811535,None,005,001,2023-11-09_18h02.45.511,untitled,2023.2.2,59.95906793071105,2023-11-09 18h02.57.998173 +0800,
1,condition_2/leftstar.PNG,space,,,,,,,,,,,,,0,1,1,16,353.8417474829664,,,,,,,,,,,,,,,,,,,,,,,,,,,,,,,,,,,,,,,,,,,,,,,,,,,,,,,,,,,,,,,,,,,,,,,,,,,,,,,,,,,,,,,,,,,,,,,,,,,,,,,,,,353.7418094998866,353.8417474829664,354.24379650517835,354.2438106272484,354.75648833997775,355.2567650724552,355.04035366470725,355.04037529851666,356.3691734442589,356.3691734442589,357.1730362210062,357.24075064510816,space,1,0.8587970279952515,None,005,001,2023-11-09_18h02.45.511,untitled,2023.2.2,59.95906793071105,2023-11-09 18h02.57.998173 +0800,
9,condition_2/rightstar.PNG,right,,,,,,,,,,,,,0,2,2,15,357.34605892088166,,,,,,,,,,,,,,,,,,,,,,,,,,,,,,,,,,,,,,,,,,,,,,,,,,,,,,,,,,,,,,,,,,,,,,,,,,,,,,,,,,,,,,,,,,,,,,,,,,,,,,,,,,357.2415859505236,357.34605892088166,357.74370696524534,357.74372078684587,358.25660522264207,358.75382738143185,358.5400099275148,358.54002314817603,359.86930655228,359.86930655228,,360.3288281926996,right,1,0.4539869908694527,None,005,001,2023-11-09_18h02.45.511,untitled,2023.2.2,59.95906793071105,2023-11-09 18h02.57.998173 +0800,
9,condition_2/leftstar.PNG,left,,,,,,,,,,,,,0,3,3,19,360.4299506268396,,,,,,,,,,,,,,,,,,,,,,,,,,,,,,,,,,,,,,,,,,,,,,,,,,,,,,,,,,,,,,,,,,,,,,,,,,,,,,,,,,,,,,,,,,,,,,,,,,,,,,,,,,360.32931495340927,360.4299506268396,360.8437212675972,360.8437350891975,361.33972171709956,361.83369820355256,361.6235008070614,361.62351342678335,362.95248584487854,362.95248584487854,363.7561884713432,364.1406495070496,left,1,1.1782851239916,None,005,001,2023-11-09_18h02.45.511,untitled,2023.2.2,59.95906793071105,2023-11-09 18h02.57.998173 +0800,
1,condition_2/leftstar.PNG,space,,,,,,,,,,,,,0,4,4,0,364.23894933001293,,,,,,,,,,,,,,,,,,,,,,,,,,,,,,,,,,,,,,,,,,,,,,,,,,,,,,,,,,,,,,,,,,,,,,,,,,,,,,,,,,,,,,,,,,,,,,,,,,,,,,,,,,364.1413490002176,364.23894933001293,364.6437076863724,364.64372180844225,365.15639561506737,365.6469275183258,365.44014105243673,365.4401527707503,366.7692339588309,366.7692339588309,,367.12801866757377,space,1,0.3535886884021693,None,005,001,2023-11-09_18h02.45.511,untitled,2023.2.2,59.95906793071105,2023-11-09 18h02.57.998173 +0800,
8,condition_2/blank.PNG,space,,,,,,,,,,,,,0,5,5,24,367.22437715662045,,,,,,,,,,,,,,,,,,,,,,,,,,,,,,,,,,,,,,,,,,,,,,,,,,,,,,,,,,,,,,,,,,,,,,,,,,,,,,,,,,,,,,,,,,,,,,,,,,,,,,,,,,367.1286045832428,367.22437715662045,367.6437746910874,367.6437885126877,368.13974749738895,368.52758400828816,368.4237558456357,368.42377657803627,369.7448081862335,369.7448081862335,370.53965447200903,371.9741295696915,space,1,2.2178161030058163,None,005,001,2023-11-09_18h02.45.511,untitled,2023.2.2,59.95906793071105,2023-11-09 18h02.57.998173 +0800,
8,condition_2/leftstar.PNG,left,,,,,,,,,,,,,0,6,6,18,372.07278424722153,,,,,,,,,,,,,,,,,,,,,,,,,,,,,,,,,,,,,,,,,,,,,,,,,,,,,,,,,,,,,,,,,,,,,,,,,,,,,,,,,,,,,,,,,,,,,,,,,,,,,,,,,,371.97495495961107,372.07278424722153,372.4771658147354,372.47717933586614,372.98975939598404,373.50012499534273,373.27385758463333,373.2738831245472,374.60263830314034,374.60263830314034,375.40628714555123,375.6908240197781,left,1,1.0728617683716948,None,005,001,2023-11-09_18h02.45.511,untitled,2023.2.2,59.95906793071105,2023-11-09 18h02.57.998173 +0800,
1,condition_2/leftstar.PNG,space,,,,,,,,,,,,,0,7,7,22,375.78970945794094,,,,,,,,,,,,,,,,,,,,,,,,,,,,,,,,,,,,,,,,,,,,,,,,,,,,,,,,,,,,,,,,,,,,,,,,,,,,,,,,,,,,,,,,,,,,,,,,,,,,,,,,,,375.6916440012453,375.78970945794094,376.1938707812569,376.1938858047358,376.7065833484571,377.20615457837516,376.9903365980356,376.9903570299666,378.31917921327454,378.31917921327454,,378.74528382956896,space,1,0.4201015346782242,None,005,001,2023-11-09_18h02.45.511,untitled,2023.2.2,59.95906793071105,2023-11-09 18h02.57.998173 +0800,
1,condition_2/rightstar.PNG,space,,,,,,,,,,,,,0,8,8,4,378.8428982814344,,,,,,,,,,,,,,,,,,,,,,,,,,,,,,,,,,,,,,,,,,,,,,,,,,,,,,,,,,,,,,,,,,,,,,,,,,,,,,,,,,,,,,,,,,,,,,,,,,,,,,,,,,378.74625554817067,378.8428982814344,379.2604978059712,379.26051252898037,379.7564288470021,380.2573353637065,380.0404248759962,380.04044681027517,381.36915962265834,381.36915962265834,382.17297372333496,382.4406722826434,space,1,1.058343379032749,None,005,001,2023-11-09_18h02.45.511,untitled,2023.2.2,59.95906793071105,2023-11-09 18h02.57.998173 +0800,
2,condition_2/rightstar.PNG,space,,,,,,,,,,,,,0,9,9,21,382.5448165392877,,,,,,,,,,,,,,,,,,,,,,,,,,,,,,,,,,,,,,,,,,,,,,,,,,,,,,,,,,,,,,,,,,,,,,,,,,,,,,,,,,,,,,,,,,,,,,,,,,,,,,,,,,382.4413919072729,382.5448165392877,382.94385635871754,382.9438704807874,383.4564781841061,383.95926594081243,383.74037175297553,383.7403909830284,385.06935108187076,385.06935108187076,,385.66215711914583,space,1,0.5821324566031763,None,005,001,2023-11-09_18h02.45.511,untitled,2023.2.2,59.95906793071105,2023-11-09 18h02.57.998173 +0800,
1,condition_2/blank.PNG,space,,,,,,,,,,,,,0,10,10,8,385.75660522264207,,,,,,,,,,,,,,,,,,,,,,,,,,,,,,,,,,,,,,,,,,,,,,,,,,,,,,,,,,,,,,,,,,,,,,,,,,,,,,,,,,,,,,,,,,,,,,,,,,,,,,,,,,385.66336741058944,385.75660522264207,386.1771661752989,386.17718029736875,386.6731155449738,387.07830567611063,386.95720742376193,386.95723146132786,388.2780963089117,388.2780963089117,389.08970128516853,390.7407383258558,space,1,2.452625262760648,None,005,001,2023-11-09_18h02.45.511,untitled,2023.2.2,59.95906793071105,2023-11-09 18h02.57.998173 +0800,
9,condition_2/rightstar.PNG,right,,,,,,,,,,,,,0,11,11,7,390.841580722353,,,,,,,,,,,,,,,,,,,,,,,,,,,,,,,,,,,,,,,,,,,,,,,,,,,,,,,,,,,,,,,,,,,,,,,,,,,,,,,,,,,,,,,,,,,,,,,,,,,,,,,,,,390.74151954674767,390.841580722353,391.2438103267789,391.2438244488487,391.7564793258905,392.2663398358957,392.04058743003566,392.04061537370603,393.36927740673127,393.36927740673127,,393.81129128602197,right,1,0.4339835294599652,None,005,001,2023-11-09_18h02.45.511,untitled,2023.2.2,59.95906793071105,2023-11-09 18h02.57.998173 +0800,
2,condition_2/leftstar.PNG,space,,,,,,,,,,,,,0,12,12,17,393.90836399124555,,,,,,,,,,,,,,,,,,,,,,,,,,,,,,,,,,,,,,,,,,,,,,,,,,,,,,,,,,,,,,,,,,,,,,,,,,,,,,,,,,,,,,,,,,,,,,,,,,,,,,,,,,393.8118976336218,393.90836399124555,394.3270923799714,394.32710770391986,394.823101242622,395.32235517667027,395.1072676378644,395.10729227636966,396.4357617083979,396.4357617083979,,396.82856047430937,space,1,0.39119215510004324,None,005,001,2023-11-09_18h02.45.511,untitled,2023.2.2,59.95906793071105,2023-11-09 18h02.57.998173 +0800,
8,condition_2/leftstar.PNG,left,,,,,,,,,,,,,0,13,13,2,396.92685068224637,,,,,,,,,,,,,,,,,,,,,,,,,,,,,,,,,,,,,,,,,,,,,,,,,,,,,,,,,,,,,,,,,,,,,,,,,,,,,,,,,,,,,,,,,,,,,,,,,,,,,,,,,,396.82960490654796,396.92685068224637,397.34378046010306,397.3437936807643,397.83986594249495,398.33626090854796,398.12420931431643,398.1242408636217,399.4526529059615,399.4526529059615,,399.9446733354887,left,1,0.4787601062939757,None,005,001,2023-11-09_18h02.45.511,untitled,2023.2.2,59.95906793071105,2023-11-09 18h02.57.998173 +0800,
8,condition_2/blank.PNG,space,,,,,,,,,,,,,0,14,14,10,400.03655182318926,,,,,,,,,,,,,,,,,,,,,,,,,,,,,,,,,,,,,,,,,,,,,,,,,,,,,,,,,,,,,,,,,,,,,,,,,,,,,,,,,,,,,,,,,,,,,,,,,,,,,,,,,,399.9452697675929,400.03655182318926,400.4605798942589,400.46059461726804,400.95641208079996,401.3481141327668,401.2403903820891,401.24041141495945,402.56152114524593,402.56152114524593,403.37302636560435,406.1407396479219,left,0,3.5706659367258453,None,005,001,2023-11-09_18h02.45.511,untitled,2023.2.2,59.95906793071105,2023-11-09 18h02.57.998173 +0800,
2,condition_2/leftstar.PNG,space,,,,,,,,,,,,,0,15,15,1,406.2404537811692,,,,,,,,,,,,,,,,,,,,,,,,,,,,,,,,,,,,,,,,,,,,,,,,,,,,,,,,,,,,,,,,,,,,,,,,,,,,,,,,,,,,,,,,,,,,,,,,,,,,,,,,,,406.14146017396,406.2404537811692,406.643817958706,406.6438317803063,407.1566570235966,407.6671698530465,407.4405923577367,407.4406181981201,408.76943256921936,408.76943256921936,,409.1445444941355,space,1,0.36249280375363924,None,005,001,2023-11-09_18h02.45.511,untitled,2023.2.2,59.95906793071105,2023-11-09 18h02.57.998173 +0800,
1,condition_2/rightstar.PNG,space,,,,,,,,,,,,,0,16,16,12,409.2408762413902,,,,,,,,,,,,,,,,,,,,,,,,,,,,,,,,,,,,,,,,,,,,,,,,,,,,,,,,,,,,,,,,,,,,,,,,,,,,,,,,,,,,,,,,,,,,,,,,,,,,,,,,,,409.14510456942116,409.2408762413902,409.66074551308793,409.66079028305444,410.15646472306935,410.64768019460826,410.44028527783234,410.4402972966152,411.76924147057025,411.76924147057025,,412.3279547276484,space,1,0.5460502673577139,None,005,001,2023-11-09_18h02.45.511,untitled,2023.2.2,59.95906793071105,2023-11-09 18h02.57.998173 +0800,
8,condition_2/rightstar.PNG,right,,,,,,,,,,,,,0,17,17,6,412.4220548873782,,,,,,,,,,,,,,,,,,,,,,,,,,,,,,,,,,,,,,,,,,,,,,,,,,,,,,,,,,,,,,,,,,,,,,,,,,,,,,,,,,,,,,,,,,,,,,,,,,,,,,,,,,412.32852141326475,412.4220548873782,412.843846863879,412.8438606854793,413.33977339786634,413.8377353127469,413.6236931075887,413.6237150418676,414.95257268058526,414.95257268058526,,415.34516652624734,right,1,0.3782473249193572,None,005,001,2023-11-09_18h02.45.511,untitled,2023.2.2,59.95906793071105,2023-11-09 18h02.57.998173 +0800,
8,condition_2/rightstar.PNG,right,,,,,,,,,,,,,0,18,18,14,415.4486218061588,,,,,,,,,,,,,,,,,,,,,,,,,,,,,,,,,,,,,,,,,,,,,,,,,,,,,,,,,,,,,,,,,,,,,,,,,,,,,,,,,,,,,,,,,,,,,,,,,,,,,,,,,,415.3461451556493,415.4486218061588,415.8605196200624,415.8605367468281,416.3564689897373,416.8586939669317,416.6404133379647,416.64043557271316,417.969192253654,417.969192253654,,418.44493985200074,right,1,0.4669080839535127,None,005,001,2023-11-09_18h02.45.511,untitled,2023.2.2,59.95906793071105,2023-11-09 18h02.57.998173 +0800,
2,condition_2/blank.PNG,space,,,,,,,,,,,,,0,19,19,9,418.54035366470725,,,,,,,,,,,,,,,,,,,,,,,,,,,,,,,,,,,,,,,,,,,,,,,,,,,,,,,,,,,,,,,,,,,,,,,,,,,,,,,,,,,,,,,,,,,,,,,,,,,,,,,,,,418.4457574297112,418.54035366470725,418.96055435434505,418.96056877688466,419.45646826861025,419.86579706765747,419.7405439220415,419.740568260077,421.0615499903249,421.0615499903249,,421.29479610735666,space,1,0.2309715623575812,None,005,001,2023-11-09_18h02.45.511,untitled,2023.2.2,59.95906793071105,2023-11-09 18h02.57.998173 +0800,
2,condition_2/rightstar.PNG,space,,,,,,,,,,,,,0,20,20,5,421.3947854707337,,,,,,,,,,,,,,,,,,,,,,,,,,,,,,,,,,,,,,,,,,,,,,,,,,,,,,,,,,,,,,,,,,,,,,,,,,,,,,,,,,,,,,,,,,,,,,,,,,,,,,,,,,421.2954006521393,421.3947854707337,421.81041481627494,421.81043074116246,422.3065021014843,422.80731276839447,422.59030222431625,422.5903142430991,423.9194909805044,423.9194909805044,,424.56166567111086,space,1,0.6280658412968023,None,005,001,2023-11-09_18h02.45.511,untitled,2023.2.2,59.95906793071105,2023-11-09 18h02.57.998173 +0800,
9,condition_2/leftstar.PNG,left,,,,,,,,,,,,,0,21,21,20,424.666789458566,,,,,,,,,,,,,,,,,,,,,,,,,,,,,,,,,,,,,,,,,,,,,,,,,,,,,,,,,,,,,,,,,,,,,,,,,,,,,,,,,,,,,,,,,,,,,,,,,,,,,,,,,,424.5625313239532,424.666789458566,425.0773018072646,425.0773165302735,425.5731523224497,426.0794651881963,425.85720483972364,425.85722797588073,427.18603844087556,427.18603844087556,,427.7616392898824,left,1,0.5608174455039716,None,005,001,2023-11-09_18h02.45.511,untitled,2023.2.2,59.95906793071105,2023-11-09 18h02.57.998173 +0800,
8,condition_2/rightstar.PNG,right,,,,,,,,,,,,,0,22,22,23,427.8579121451005,,,,,,,,,,,,,,,,,,,,,,,,,,,,,,,,,,,,,,,,,,,,,,,,,,,,,,,,,,,,,,,,,,,,,,,,,,,,,,,,,,,,,,,,,,,,,,,,,,,,,,,,,,427.76255211644775,427.8579121451005,428.2772372664001,428.2772501865918,428.77332094597455,429.2772003086425,429.0572628904454,429.0572890312983,430.3859156089136,430.3859156089136,,430.87842039539396,right,1,0.4896917903297435,None,005,001,2023-11-09_18h02.45.511,untitled,2023.2.2,59.95906793071105,2023-11-09 18h02.57.998173 +0800,
2,condition_2/rightstar.PNG,space,,,,,,,,,,,,,0,23,23,13,430.9753275418825,,,,,,,,,,,,,,,,,,,,,,,,,,,,,,,,,,,,,,,,,,,,,,,,,,,,,,,,,,,,,,,,,,,,,,,,,,,,,,,,,,,,,,,,,,,,,,,,,,,,,,,,,,430.87920011393817,430.9753275418825,431.39393153620495,431.3939456582748,431.8898295255826,432.3938236676279,432.1739616672937,432.1739875076771,433.50250170967206,433.50250170967206,,433.91139933488057,space,1,0.40584605621643277,None,005,001,2023-11-09_18h02.45.511,untitled,2023.2.2,59.95906793071105,2023-11-09 18h02.57.998173 +0800,
9,condition_2/leftstar.PNG,left,,,,,,,,,,,,,0,24,24,3,434.0071009974388,,,,,,,,,,,,,,,,,,,,,,,,,,,,,,,,,,,,,,,,,,,,,,,,,,,,,,,,,,,,,,,,,,,,,,,,,,,,,,,,,,,,,,,,,,,,,,,,,,,,,,,,,,433.91193657447866,434.0071009974388,434.42730288895496,434.42731731149456,434.9233613290851,435.4280781004554,435.207454109282,435.20748595905684,436.5360407244443,436.5360407244443,,437.2619662007787,left,1,0.7231614567244833,None,005,001,2023-11-09_18h02.45.511,untitled,2023.2.2,59.95906793071105,2023-11-09 18h02.57.998173 +0800,
2,condition_2/leftstar.PNG,space,,,,,,,,,,,,,1,0,25,17,437.36117854983786,,,,,,,,,,,,,,,,,,,,,,,,,,,,,,,,,,,,,,,,,,,,,,,,,,,,,,,,,,,,,,,,,,,,,,,,,,,,,,,,,,,,,,,,,,,,,,,,,,,,,,,,,,437.2629310085804,437.36117854983786,437.777227350904,437.7772414729741,438.2731379600041,438.7653206431012,438.5567550968656,438.5567671156484,439.88576657600515,439.88576657600515,,440.31215904215105,space,1,0.4130819644940402,None,005,001,2023-11-09_18h02.45.511,untitled,2023.2.2,59.95906793071105,2023-11-09 18h02.57.998173 +0800,
8,condition_2/leftstar.PNG,left,,,,,,,,,,,,,1,1,26,18,440.4097461512854,,,,,,,,,,,,,,,,,,,,,,,,,,,,,,,,,,,,,,,,,,,,,,,,,,,,,,,,,,,,,,,,,,,,,,,,,,,,,,,,,,,,,,,,,,,,,,,,,,,,,,,,,,440.313441746762,440.4097461512854,440.8271894316438,440.827202652305,441.32320250086855,441.8241543884783,441.60709967537287,441.6071201073037,442.93592065680264,442.93592065680264,,443.4783508667347,left,1,0.5308113519809012,None,005,001,2023-11-09_18h02.45.511,untitled,2023.2.2,59.95906793071105,2023-11-09 18h02.57.998173 +0800,
9,condition_2/leftstar.PNG,left,,,,,,,,,,,,,1,2,27,20,443.5766155347578,,,,,,,,,,,,,,,,,,,,,,,,,,,,,,,,,,,,,,,,,,,,,,,,,,,,,,,,,,,,,,,,,,,,,,,,,,,,,,,,,,,,,,,,,,,,,,,,,,,,,,,,,,443.47917205008,443.5766155347578,443.9939957165059,443.9940098385757,444.4898369171342,444.99699981130516,444.77388282407765,444.77390535929567,446.10241775847294,446.10241775847294,446.906463521191,447.04122923304544,left,1,0.9334892570107058,None,005,001,2023-11-09_18h02.45.511,untitled,2023.2.2,59.95906793071105,2023-11-09 18h02.57.998173 +0800,
8,condition_2/blank.PNG,space,,,,,,,,,,,,,1,3,28,24,447.1391946333731,,,,,,,,,,,,,,,,,,,,,,,,,,,,,,,,,,,,,,,,,,,,,,,,,,,,,,,,,,,,,,,,,,,,,,,,,,,,,,,,,,,,,,,,,,,,,,,,,,,,,,,,,,447.0421651957681,447.1391946333731,447.5438622479212,447.5438766704606,448.0565102141627,448.4763208942936,448.3404776985474,448.34049752953933,449.6615198231798,449.6615198231798,450.4731557478028,450.8575239384111,space,1,1.181661200123699,None,005,001,2023-11-09_18h02.45.511,untitled,2023.2.2,59.95906793071105,2023-11-09 18h02.57.998173 +0800,
1,condition_2/rightstar.PNG,space,,,,,,,,,,,,,1,4,29,4,450.9565040244895,,,,,,,,,,,,,,,,,,,,,,,,,,,,,,,,,,,,,,,,,,,,,,,,,,,,,,,,,,,,,,,,,,,,,,,,,,,,,,,,,,,,,,,,,,,,,,,,,,,,,,,,,,450.85831086822486,450.9565040244895,451.36060315060377,451.36061727267384,451.87319462856567,452.3763612774044,452.1571957655424,452.15721920216924,453.48593712253523,453.48593712253523,454.2898410636144,454.8574899853493,space,1,1.3647075649823819,None,005,001,2023-11-09_18h02.45.511,untitled,2023.2.2,59.95906793071105,2023-11-09 18h02.57.998173 +0800,
1,condition_2/leftstar.PNG,space,,,,,,,,,,,,,1,5,30,22,454.9590535088237,,,,,,,,,,,,,,,,,,,,,,,,,,,,,,,,,,,,,,,,,,,,,,,,,,,,,,,,,,,,,,,,,,,,,,,,,,,,,,,,,,,,,,,,,,,,,,,,,,,,,,,,,,454.85820299964803,454.9590535088237,455.36048837122667,455.36050129141836,455.8731666848953,456.37362069442133,456.15719606601215,456.15721800029087,457.48587612721167,457.48587612721167,458.289779166882,458.5740915903375,space,1,1.0863853029516122,None,005,001,2023-11-09_18h02.45.511,untitled,2023.2.2,59.95906793071105,2023-11-09 18h02.57.998173 +0800,
8,condition_2/rightstar.PNG,right,,,,,,,,,,,,,1,6,31,14,458.67335652157203,,,,,,,,,,,,,,,,,,,,,,,,,,,,,,,,,,,,,,,,,,,,,,,,,,,,,,,,,,,,,,,,,,,,,,,,,,,,,,,,,,,,,,,,,,,,,,,,,,,,,,,,,,458.57481241684513,458.67335652157203,459.0771425583903,459.0771569809299,459.58982057158937,460.0873570215533,459.87372615924164,459.8737429855378,461.2026225585346,461.2026225585346,,461.7280209511425,right,1,0.5135779195727537,None,005,001,2023-11-09_18h02.45.511,untitled,2023.2.2,59.95906793071105,2023-11-09 18h02.57.998173 +0800,
8,condition_2/blank.PNG,space,,,,,,,,,,,,,1,7,32,10,461.82471236047695,,,,,,,,,,,,,,,,,,,,,,,,,,,,,,,,,,,,,,,,,,,,,,,,,,,,,,,,,,,,,,,,,,,,,,,,,,,,,,,,,,,,,,,,,,,,,,,,,,,,,,,,,,461.7285999560113,461.82471236047695,462.2440032282452,462.24401735031506,462.73985975282176,463.14442580865375,463.02387411045993,463.0238960447389,464.3448994087962,464.3448994087962,,464.76172402230213,space,1,0.41101984180886575,None,005,001,2023-11-09_18h02.45.511,untitled,2023.2.2,59.95906793071105,2023-11-09 18h02.57.998173 +0800,
2,condition_2/rightstar.PNG,space,,,,,,,,,,,,,1,8,33,13,464.86723811973366,,,,,,,,,,,,,,,,,,,,,,,,,,,,,,,,,,,,,,,,,,,,,,,,,,,,,,,,,,,,,,,,,,,,,,,,,,,,,,,,,,,,,,,,,,,,,,,,,,,,,,,,,,464.7625440037691,464.86723811973366,465.27748996131163,465.2775353322172,465.77306554683673,466.27714171707544,466.0573250876471,466.05734672145627,467.3860072521338,467.3860072521338,,467.9283731615769,right,0,0.5299871639397224,None,005,001,2023-11-09_18h02.45.511,untitled,2023.2.2,59.95906793071105,2023-11-09 18h02.57.998173 +0800,
8,condition_2/rightstar.PNG,right,,,,,,,,,,,,,1,9,34,6,468.0310571360924,,,,,,,,,,,,,,,,,,,,,,,,,,,,,,,,,,,,,,,,,,,,,,,,,,,,,,,,,,,,,,,,,,,,,,,,,,,,,,,,,,,,,,,,,,,,,,,,,,,,,,,,,,467.9291555843472,468.0310571360924,468.44395250898106,468.4439672319902,468.93987994437725,469.4423350812651,469.22376990761177,469.2237891376644,470.5525488233011,470.5525488233011,,471.0279923464391,right,1,0.467283670921006,None,005,001,2023-11-09_18h02.45.511,untitled,2023.2.2,59.95906793071105,2023-11-09 18h02.57.998173 +0800,
1,condition_2/leftstar.PNG,space,,,,,,,,,,,,,1,10,35,16,471.12404135182464,,,,,,,,,,,,,,,,,,,,,,,,,,,,,,,,,,,,,,,,,,,,,,,,,,,,,,,,,,,,,,,,,,,,,,,,,,,,,,,,,,,,,,,,,,,,,,,,,,,,,,,,,,471.02844515408697,471.12404135182464,471.5439394686016,471.5439544920803,472.03992098852086,472.53996125144386,472.32373793764896,472.323754163006,473.6525306749388,473.6525306749388,,474.0784237606533,space,1,0.4230671693721888,None,005,001,2023-11-09_18h02.45.511,untitled,2023.2.2,59.95906793071105,2023-11-09 18h02.57.998173 +0800,
8,condition_2/rightstar.PNG,right,,,,,,,,,,,,,1,11,36,23,474.17520831555566,,,,,,,,,,,,,,,,,,,,,,,,,,,,,,,,,,,,,,,,,,,,,,,,,,,,,,,,,,,,,,,,,,,,,,,,,,,,,,,,,,,,,,,,,,,,,,,,,,,,,,,,,,474.0792055824843,474.17520831555566,474.59390154934135,474.5939153709419,475.0899464683407,475.592894976269,475.37394309827414,475.37396773677915,476.7025735819941,476.7025735819941,477.5065628564321,477.6578483854569,right,1,0.9494198533468534,None,005,001,2023-11-09_18h02.45.511,untitled,2023.2.2,59.95906793071105,2023-11-09 18h02.57.998173 +0800,
1,condition_2/leftstar.PNG,space,,,,,,,,,,,,,1,12,37,0,477.75994193725955,,,,,,,,,,,,,,,,,,,,,,,,,,,,,,,,,,,,,,,,,,,,,,,,,,,,,,,,,,,,,,,,,,,,,,,,,,,,,,,,,,,,,,,,,,,,,,,,,,,,,,,,,,477.6587717284574,477.75994193725955,478.1606054942665,478.1606193158668,478.67323633374235,479.1705092718903,478.95716295426496,478.9571824847874,480.2859172314495,480.2859172314495,,480.4779443314012,space,1,0.1806993970176336,None,005,001,2023-11-09_18h02.45.511,untitled,2023.2.2,59.95906793071105,2023-11-09 18h02.57.998173 +0800,
1,condition_2/blank.PNG,space,,,,,,,,,,,,,1,13,38,8,480.5730480595075,,,,,,,,,,,,,,,,,,,,,,,,,,,,,,,,,,,,,,,,,,,,,,,,,,,,,,,,,,,,,,,,,,,,,,,,,,,,,,,,,,,,,,,,,,,,,,,,,,,,,,,,,,480.4784623409464,480.5730480595075,480.99399271181005,480.99400713434966,481.489888597901,481.8959431800017,481.7737893780402,481.77380590386656,483.0950328172869,483.0950328172869,483.9063757840754,485.0240901480836,space,1,1.9249150572513827,None,005,001,2023-11-09_18h02.45.511,untitled,2023.2.2,59.95906793071105,2023-11-09 18h02.57.998173 +0800,
8,condition_2/leftstar.PNG,left,,,,,,,,,,,,,1,14,39,2,485.1214110411752,,,,,,,,,,,,,,,,,,,,,,,,,,,,,,,,,,,,,,,,,,,,,,,,,,,,,,,,,,,,,,,,,,,,,,,,,,,,,,,,,,,,,,,,,,,,,,,,,,,,,,,,,,485.0247713126075,485.1214110411752,485.52726581100956,485.5272790316708,486.03982123262244,486.5484606342793,486.32380283907696,486.3238181630252,487.6526127031325,487.6526127031325,,488.39478577120326,left,1,0.735367432223029,None,005,001,2023-11-09_18h02.45.511,untitled,2023.2.2,59.95906793071105,2023-11-09 18h02.57.998173 +0800,
9,condition_2/rightstar.PNG,right,,,,,,,,,,,,,1,15,40,7,488.49163342471616,,,,,,,,,,,,,,,,,,,,,,,,,,,,,,,,,,,,,,,,,,,,,,,,,,,,,,,,,,,,,,,,,,,,,,,,,,,,,,,,,,,,,,,,,,,,,,,,,,,,,,,,,,488.3953927197424,488.49163342471616,488.91065417033747,488.91066829240754,489.4066377935437,489.90818521184906,489.6906290150248,489.6906551558777,491.01929465368494,491.01929465368494,,491.72854617195753,right,1,0.7037799673328209,None,005,001,2023-11-09_18h02.45.511,untitled,2023.2.2,59.95906793071105,2023-11-09 18h02.57.998173 +0800,
2,condition_2/blank.PNG,space,,,,,,,,,,,,,1,16,41,9,491.8313999117822,,,,,,,,,,,,,,,,,,,,,,,,,,,,,,,,,,,,,,,,,,,,,,,,,,,,,,,,,,,,,,,,,,,,,,,,,,,,,,,,,,,,,,,,,,,,,,,,,,,,,,,,,,491.729399806017,491.8313999117822,492.2440672282644,492.2440810498649,492.7399964664778,493.1270244137538,493.02400481472455,493.02402915276,494.3449742257201,494.3449742257201,495.1564638216605,495.657657286808,space,1,1.3068993222609606,None,005,001,2023-11-09_18h02.45.511,untitled,2023.2.2,59.95906793071105,2023-11-09 18h02.57.998173 +0800,
2,condition_2/rightstar.PNG,space,,,,,,,,,,,,,1,17,42,5,495.758857242098,,,,,,,,,,,,,,,,,,,,,,,,,,,,,,,,,,,,,,,,,,,,,,,,,,,,,,,,,,,,,,,,,,,,,,,,,,,,,,,,,,,,,,,,,,,,,,,,,,,,,,,,,,495.6584394091087,495.758857242098,496.1609309028149,496.1609600483637,496.6734610849837,497.179679002345,496.95754274780643,496.9575748980508,498.2860037666867,498.2860037666867,499.08994706928,499.757764434258,space,1,1.4618610965217158,None,005,001,2023-11-09_18h02.45.511,untitled,2023.2.2,59.95906793071105,2023-11-09 18h02.57.998173 +0800,
9,condition_2/leftstar.PNG,left,,,,,,,,,,,,,1,18,43,3,499.8611409911409,,,,,,,,,,,,,,,,,,,,,,,,,,,,,,,,,,,,,,,,,,,,,,,,,,,,,,,,,,,,,,,,,,,,,,,,,,,,,,,,,,,,,,,,,,,,,,,,,,,,,,,,,,499.758734650512,499.8611409911409,500.2609770549416,500.26101671692527,500.77324883327674,501.27429897443744,501.057313068864,501.05733560408225,502.38612713949374,502.38612713949374,,502.9447866125181,left,1,0.5445199758182753,None,005,001,2023-11-09_18h02.45.511,untitled,2023.2.2,59.95906793071105,2023-11-09 18h02.57.998173 +0800,
9,condition_2/rightstar.PNG,right,,,,,,,,,,,,,1,19,44,15,503.0411754489917,,,,,,,,,,,,,,,,,,,,,,,,,,,,,,,,,,,,,,,,,,,,,,,,,,,,,,,,,,,,,,,,,,,,,,,,,,,,,,,,,,,,,,,,,,,,,,,,,,,,,,,,,,502.9453520962561,503.0411754489917,503.4605943167983,503.46060753745974,503.95661039071865,504.449074914276,504.24035011916635,504.2403633398276,505.56966537304515,505.56966537304515,506.37308615904954,506.4570908415674,right,1,0.8740134081542692,None,005,001,2023-11-09_18h02.45.511,untitled,2023.2.2,59.95906793071105,2023-11-09 18h02.57.998173 +0800,
2,condition_2/leftstar.PNG,space,,,,,,,,,,,,,1,20,45,1,506.55411997870283,,,,,,,,,,,,,,,,,,,,,,,,,,,,,,,,,,,,,,,,,,,,,,,,,,,,,,,,,,,,,,,,,,,,,,,,,,,,,,,,,,,,,,,,,,,,,,,,,,,,,,,,,,506.4575421468671,506.55411997870283,506.9607063919493,506.9607208144889,507.4566209071538,507.9510243608713,507.74029903933865,507.74031135859127,509.0695605091637,509.0695605091637,,509.47895721433474,space,1,0.4058688919042197,None,005,001,2023-11-09_18h02.45.511,untitled,2023.2.2,59.95906793071105,2023-11-09 18h02.57.998173 +0800,
2,condition_2/rightstar.PNG,space,,,,,,,,,,,,,1,21,46,21,509.57338668871716,,,,,,,,,,,,,,,,,,,,,,,,,,,,,,,,,,,,,,,,,,,,,,,,,,,,,,,,,,,,,,,,,,,,,,,,,,,,,,,,,,,,,,,,,,,,,,,,,,,,,,,,,,509.4800647451839,509.57338668871716,509.9940311719156,509.9940449935159,510.48988799696167,510.9912984011414,510.77391046727826,510.77393270202674,512.1026476176971,512.1026476176971,512.9064115399547,514.4074508642107,space,1,2.292760726463257,None,005,001,2023-11-09_18h02.45.511,untitled,2023.2.2,59.95906793071105,2023-11-09 18h02.57.998173 +0800,
9,condition_2/blank.PNG,space,,,,,,,,,,,,,1,22,47,11,514.5052290719939,,,,,,,,,,,,,,,,,,,,,,,,,,,,,,,,,,,,,,,,,,,,,,,,,,,,,,,,,,,,,,,,,,,,,,,,,,,,,,,,,,,,,,,,,,,,,,,,,,,,,,,,,,514.4079120850065,514.5052290719939,514.9106445553111,514.9106586773812,515.423269084926,515.8488226400218,515.707290653834,515.7073137899911,517.0283841587634,517.0283841587634,,517.6779446919647,space,1,0.6388536004067191,None,005,001,2023-11-09_18h02.45.511,untitled,2023.2.2,59.95906793071105,2023-11-09 18h02.57.998173 +0800,
1,condition_2/rightstar.PNG,space,,,,,,,,,,,,,1,23,48,12,517.7687604187824,,,,,,,,,,,,,,,,,,,,,,,,,,,,,,,,,,,,,,,,,,,,,,,,,,,,,,,,,,,,,,,,,,,,,,,,,,,,,,,,,,,,,,,,,,,,,,,,,,,,,,,,,,517.6784002038387,517.7687604187824,518.1939747437295,518.1939873634517,518.6897976157138,519.1892844136819,518.9738657574057,518.973883184641,520.3026627012696,520.3026627012696,521.1065543230961,521.3576071684829,space,1,1.0445992997856592,None,005,001,2023-11-09_18h02.45.511,untitled,2023.2.2,59.95906793071105,2023-11-09 18h02.57.998173 +0800,
9,condition_2/leftstar.PNG,left,,,,,,,,,,,,,1,24,49,19,521.4624500168866,,,,,,,,,,,,,,,,,,,,,,,,,,,,,,,,,,,,,,,,,,,,,,,,,,,,,,,,,,,,,,,,,,,,,,,,,,,,,,,,,,,,,,,,,,,,,,,,,,,,,,,,,,521.3583784738792,521.4624500168866,521.8607014041545,521.8607167281027,522.3732943844641,522.8781649962561,522.6573297749724,522.6573511083122,523.9861162024013,523.9861162024013,,524.6450039121139,left,1,0.6419222961644664,None,005,001,2023-11-09_18h02.45.511,untitled,2023.2.2,59.95906793071105,2023-11-09 18h02.57.998173 +0800,
