stimuli,star,CorrectAns,trials_3.thisRepN,trials_3.thisTrialN,trials_3.thisN,trials_3.thisIndex,trials.thisRepN,trials.thisTrialN,trials.thisN,trials.thisIndex,trials_4.thisRepN,trials_4.thisTrialN,trials_4.thisN,trials_4.thisIndex,trials_2.thisRepN,trials_2.thisTrialN,trials_2.thisN,trials_2.thisIndex,thisRow.t,notes,routine_21.started,text_9.started,key_resp_8.started,routine_21.stopped,key_resp_8.keys,key_resp_8.rt,key_resp_8.duration,introduction.started,text_6.started,key_resp_5.started,introduction.stopped,key_resp_5.keys,key_resp_5.rt,key_resp_5.duration,routine_14.started,image_6.started,routine_14.stopped,routine_16.started,text_4.started,text_4.stopped,routine_16.stopped,routine_17.started,image_7.started,key_resp_3.started,image_7.stopped,routine_17.stopped,key_resp_3.keys,key_resp_3.rt,key_resp_3.duration,routine_20.started,text_8.started,key_resp_7.started,routine_20.stopped,key_resp_7.keys,key_resp_7.rt,key_resp_7.duration,routine_18.started,text_5.started,key_resp_4.started,routine_18.stopped,key_resp_4.keys,key_resp_4.rt,key_resp_4.duration,trial.started,image_3.started,trial.stopped,routine.started,text_3.started,text_3.stopped,routine.stopped,routine_1.started,image_2.started,key_resp.started,routine_1.stopped,key_resp.keys,key_resp.corr,key_resp.rt,key_resp.duration,image_2.stopped,routine_22.started,text_10.started,key_resp_9.started,routine_22.stopped,key_resp_9.keys,key_resp_9.rt,key_resp_9.duration,routine_19.started,text_7.started,key_resp_6.started,routine_19.stopped,key_resp_6.keys,key_resp_6.rt,key_resp_6.duration,routine_23.started,image_8.started,routine_23.stopped,routine_24.started,text_11.started,text_11.stopped,routine_24.stopped,routine_25.started,image_9.started,key_resp_10.started,image_9.stopped,routine_25.stopped,key_resp_10.keys,key_resp_10.rt,key_resp_10.duration,routine_26.started,text_12.started,key_resp_11.started,text_12.stopped,routine_26.stopped,key_resp_11.keys,key_resp_11.rt,key_resp_11.duration,routine_27.started,text_13.started,key_resp_12.started,routine_27.stopped,key_resp_12.keys,key_resp_12.rt,key_resp_12.duration,routine_10.started,image_4.started,routine_10.stopped,routine_11.started,text.started,text.stopped,routine_11.stopped,routine_12.started,image_5.started,key_resp_2.started,image_5.stopped,routine_12.stopped,key_resp_2.keys,key_resp_2.corr,key_resp_2.rt,key_resp_2.duration,participant,session,date,expName,psychopyVersion,frameRate,expStart,
,,,,,,,,,,,,,,,,,,,,,0.0034597999999732565,0.007564700000102675,0.007564700000102675,3.0515924000001178,space,3.038309500000196,None,,,,,,,,,,,,,,,,,,,,,,,,,,,,,,,,,,,,,,,,,,,,,,,,,,,,,,,,,,,,,,,,,,,,,,,,,,,,,,,,,,,,,,,,,,,,,,,,,,,,,,,,,,,,,,,,,004,001,2023-11-12_13h59.46.892,untitled,2023.2.2,60.05057459392776,2023-11-12 14h00.07.069358 +0800,
,,,,,,,,,,,,,,,,,,,,,,,,,,,,3.051627900000085,3.066692000000103,3.066692000000103,27.101531000000023,space,24.026327000000038,None,,,,,,,,,,,,,,,,,,,,,,,,,,,,,,,,,,,,,,,,,,,,,,,,,,,,,,,,,,,,,,,,,,,,,,,,,,,,,,,,,,,,,,,,,,,,,,,,,,,,,,,,,,004,001,2023-11-12_13h59.46.892,untitled,2023.2.2,60.05057459392776,2023-11-12 14h00.07.069358 +0800,
2,test/leftstar.PNG,space,0,0,0,4,,,,,,,,,,,,,27.267838800000163,,,,,,,,,,,,,,,,27.109425500000043,27.267838800000163,27.617876600000045,27.617912599999954,28.11699190000013,28.65574270000002,28.40138879999995,28.40141420000009,29.726964299999963,29.726964299999963,30.53357129999995,31.168222400000104,left,1.4310613999998623,None,,,,,,,,,,,,,,,,,,,,,,,,,,,,,,,,,,,,,,,,,,,,,,,,,,,,,,,,,,,,,,,,,,,,,,,,,,,,,,,,,,,,,,,,,,,004,001,2023-11-12_13h59.46.892,untitled,2023.2.2,60.05057459392776,2023-11-12 14h00.07.069358 +0800,
8,test/leftstar.PNG,left,0,1,1,5,,,,,,,,,,,,,31.234176300000172,,,,,,,,,,,,,,,,31.169624699999986,31.234176300000172,31.684370200000103,31.684392900000148,32.1835195000001,32.606794100000116,32.46779370000013,32.46781890000011,33.78578360000006,33.78578360000006,34.60019340000008,34.768387000000075,left,0.9721896000000925,None,,,,,,,,,,,,,,,,,,,,,,,,,,,,,,,,,,,,,,,,,,,,,,,,,,,,,,,,,,,,,,,,,,,,,,,,,,,,,,,,,,,,,,,,,,,004,001,2023-11-12_13h59.46.892,untitled,2023.2.2,60.05057459392776,2023-11-12 14h00.07.069358 +0800,
1,test/leftstar.PNG,space,0,2,2,0,,,,,,,,,,,,,34.83078300000011,,,,,,,,,,,,,,,,34.76923600000009,34.83078300000011,35.28433360000008,35.284371100000044,35.783361700000114,36.18828989999997,36.06824819999997,36.06828900000005,37.38567920000014,37.38567920000014,38.2000802,38.20195130000002,left,0.8019495000000916,None,,,,,,,,,,,,,,,,,,,,,,,,,,,,,,,,,,,,,,,,,,,,,,,,,,,,,,,,,,,,,,,,,,,,,,,,,,,,,,,,,,,,,,,,,,,004,001,2023-11-12_13h59.46.892,untitled,2023.2.2,60.05057459392776,2023-11-12 14h00.07.069358 +0800,
8,test/rightstar.PNG,right,0,3,3,1,,,,,,,,,,,,,38.29215410000006,,,,,,,,,,,,,,,,38.20287460000009,38.29215410000006,38.717656499999975,38.71767920000002,39.21683600000006,39.682040600000164,39.50145970000017,39.50149140000008,40.819047500000124,40.819047500000124,41.633399600000075,41.70182629999999,right,0.8764075999999932,None,,,,,,,,,,,,,,,,,,,,,,,,,,,,,,,,,,,,,,,,,,,,,,,,,,,,,,,,,,,,,,,,,,,,,,,,,,,,,,,,,,,,,,,,,,,004,001,2023-11-12_13h59.46.892,untitled,2023.2.2,60.05057459392776,2023-11-12 14h00.07.069358 +0800,
1,test/blank.PNG,space,0,4,4,2,,,,,,,,,,,,,41.76456200000007,,,,,,,,,,,,,,,,41.702778999999964,41.76456200000007,42.21760089999998,42.21762350000017,42.716789199999994,43.18352360000017,43.001175300000114,43.00119810000001,44.31808950000004,44.31808950000004,45.117108099999996,46.41845269999999,space,2.0904851999998755,None,,,,,,,,,,,,,,,,,,,,,,,,,,,,,,,,,,,,,,,,,,,,,,,,,,,,,,,,,,,,,,,,,,,,,,,,,,,,,,,,,,,,,,,,,,,004,001,2023-11-12_13h59.46.892,untitled,2023.2.2,60.05057459392776,2023-11-12 14h00.07.069358 +0800,
9,test/rightstar.PNG,right,0,5,5,3,,,,,,,,,,,,,46.49226930000009,,,,,,,,,,,,,,,,46.41932320000001,46.49226930000009,46.93430030000013,46.934334700000136,47.433556899999985,48.01838010000006,47.7175979000001,47.71761900000001,49.03589299999999,49.03589299999999,49.85021080000001,49.968511100000114,right,0.923837100000128,None,,,,,,,,,,,,,,,,,,,,,,,,,,,,,,,,,,,,,,,,,,,,,,,,,,,,,,,,,,,,,,,,,,,,,,,,,,,,,,,,,,,,,,,,,,,004,001,2023-11-12_13h59.46.892,untitled,2023.2.2,60.05057459392776,2023-11-12 14h00.07.069358 +0800,
,,,,,,,,,,,,,,,,,,,,,,,,,,,,,,,,,,,,,,,,,,,,,,,,,,49.969148700000005,49.98361030000001,49.98361030000001,56.28528559999995,space,6.295669100000168,None,,,,,,,,,,,,,,,,,,,,,,,,,,,,,,,,,,,,,,,,,,,,,,,,,,,,,,,,,,,,,,,,,,,,,,,,,,,,,,,,,,,,004,001,2023-11-12_13h59.46.892,untitled,2023.2.2,60.05057459392776,2023-11-12 14h00.07.069358 +0800,
,,,,,,,,,,,,,,,,,,,,,,,,,,,,,,,,,,,,,,,,,,,,,,,,,,,,,,,,,56.285340700000006,56.30002390000004,56.30002390000004,58.40178070000002,space,2.099399799999901,None,,,,,,,,,,,,,,,,,,,,,,,,,,,,,,,,,,,,,,,,,,,,,,,,,,,,,,,,,,,,,,,,,,,,,,,,,,,,,004,001,2023-11-12_13h59.46.892,untitled,2023.2.2,60.05057459392776,2023-11-12 14h00.07.069358 +0800,
2,condition_1/blank.PNG,space,,,,,0,0,0,9,,,,,,,,,58.539735500000006,,,,,,,,,,,,,,,,,,,,,,,,,,,,,,,,,,,,,,,,,,,,,58.41526390000013,58.539735500000006,58.9178558000001,58.91788210000004,59.41703540000003,59.849982400000044,59.701169000000164,59.7011943,61.018411700000115,61.018411700000115,61.75266839999995,space,1,0.7214520999998513,None,,,,,,,,,,,,,,,,,,,,,,,,,,,,,,,,,,,,,,,,,,,,,,,,,,,,,,,,,,,,,,004,001,2023-11-12_13h59.46.892,untitled,2023.2.2,60.05057459392776,2023-11-12 14h00.07.069358 +0800,
9,condition_1/rightstar.PNG,right,,,,,0,1,1,15,,,,,,,,,61.83172750000017,,,,,,,,,,,,,,,,,,,,,,,,,,,,,,,,,,,,,,,,,,,,,61.754279500000166,61.83172750000017,62.267769600000065,62.267794200000026,62.76711399999999,63.44296950000012,63.05113570000003,63.05116790000011,64.36899440000002,64.36899440000002,65.66864710000004,right,1,1.2890062000001308,None,65.18359650000002,,,,,,,,,,,,,,,,,,,,,,,,,,,,,,,,,,,,,,,,,,,,,,,,,,,,,,,,,,,,,004,001,2023-11-12_13h59.46.892,untitled,2023.2.2,60.05057459392776,2023-11-12 14h00.07.069358 +0800,
1,condition_1/blank.PNG,space,,,,,0,2,2,8,,,,,,,,,65.73121319999996,,,,,,,,,,,,,,,,,,,,,,,,,,,,,,,,,,,,,,,,,,,,,65.66970760000004,65.73121319999996,66.1842865000001,66.18431120000014,66.68340340000009,67.06122170000003,66.96800710000002,66.96803960000011,68.28474419999998,68.28474419999998,68.45260740000003,space,1,0.16405989999998383,None,,,,,,,,,,,,,,,,,,,,,,,,,,,,,,,,,,,,,,,,,,,,,,,,,,,,,,,,,,,,,,004,001,2023-11-12_13h59.46.892,untitled,2023.2.2,60.05057459392776,2023-11-12 14h00.07.069358 +0800,
1,condition_1/rightstar.PNG,space,,,,,0,3,3,12,,,,,,,,,68.51245500000005,,,,,,,,,,,,,,,,,,,,,,,,,,,,,,,,,,,,,,,,,,,,,68.45366590000003,68.51245500000005,68.96802249999996,68.96804780000002,69.46691850000002,69.91908940000008,69.75188419999995,69.75191530000006,71.06891519999999,71.06891519999999,72.33656020000012,space,1,1.2643000000000484,None,71.88349489999996,,,,,,,,,,,,,,,,,,,,,,,,,,,,,,,,,,,,,,,,,,,,,,,,,,,,,,,,,,,,,004,001,2023-11-12_13h59.46.892,untitled,2023.2.2,60.05057459392776,2023-11-12 14h00.07.069358 +0800,
8,condition_1/rightstar.PNG,right,,,,,0,4,4,23,,,,,,,,,72.40258420000009,,,,,,,,,,,,,,,,,,,,,,,,,,,,,,,,,,,,,,,,,,,,,72.33769210000014,72.40258420000009,72.85101610000015,72.85103830000003,73.35014190000015,73.75474789999998,73.63449839999998,73.63452340000003,74.95239060000017,74.95239060000017,75.90147139999999,right,1,0.939821400000028,None,75.76676910000015,,,,,,,,,,,,,,,,,,,,,,,,,,,,,,,,,,,,,,,,,,,,,,,,,,,,,,,,,,,,,004,001,2023-11-12_13h59.46.892,untitled,2023.2.2,60.05057459392776,2023-11-12 14h00.07.069358 +0800,
8,condition_1/leftstar.PNG,left,,,,,0,5,5,2,,,,,,,,,75.95943520000014,,,,,,,,,,,,,,,,,,,,,,,,,,,,,,,,,,,,,,,,,,,,,75.90246690000004,75.95943520000014,76.41755350000017,76.41757789999997,76.91680580000002,77.37496239999996,77.20112480000012,77.20114990000002,78.51895600000012,78.51895600000012,80.4682451000001,left,1,1.934202199999845,None,79.33326699999998,,,,,,,,,,,,,,,,,,,,,,,,,,,,,,,,,,,,,,,,,,,,,,,,,,,,,,,,,,,,,004,001,2023-11-12_13h59.46.892,untitled,2023.2.2,60.05057459392776,2023-11-12 14h00.07.069358 +0800,
2,condition_1/leftstar.PNG,space,,,,,0,6,6,17,,,,,,,,,80.52487470000005,,,,,,,,,,,,,,,,,,,,,,,,,,,,,,,,,,,,,,,,,,,,,80.4693651,80.52487470000005,80.98417549999999,80.98419860000013,81.4841715,81.90061920000016,81.76792090000004,81.76794540000014,83.08571989999996,83.08571989999996,83.93506530000013,space,1,0.8421129000000747,None,83.90014580000002,,,,,,,,,,,,,,,,,,,,,,,,,,,,,,,,,,,,,,,,,,,,,,,,,,,,,,,,,,,,,004,001,2023-11-12_13h59.46.892,untitled,2023.2.2,60.05057459392776,2023-11-12 14h00.07.069358 +0800,
9,condition_1/blank.PNG,space,,,,,0,7,7,11,,,,,,,,,83.98989270000015,,,,,,,,,,,,,,,,,,,,,,,,,,,,,,,,,,,,,,,,,,,,,83.93613320000009,83.98989270000015,84.45084180000003,84.45086519999995,84.95028100000013,85.38353710000001,85.23446579999995,85.2344908,86.55148120000013,86.55148120000013,99.75205030000006,space,1,13.19365629999993,None,87.35019520000014,,,,,,,,,,,,,,,,,,,,,,,,,,,,,,,,,,,,,,,,,,,,,,,,,,,,,,,,,,,,,004,001,2023-11-12_13h59.46.892,untitled,2023.2.2,60.05057459392776,2023-11-12 14h00.07.069358 +0800,
2,condition_1/rightstar.PNG,space,,,,,0,8,8,13,,,,,,,,,99.82729140000015,,,,,,,,,,,,,,,,,,,,,,,,,,,,,,,,,,,,,,,,,,,,,99.75326070000006,99.82729140000015,100.26770009999996,100.26773690000005,100.76680030000011,101.33493510000017,101.05106790000013,101.05109289999996,102.36942020000015,102.36942020000015,104.8521290000001,space,1,2.481136500000048,None,103.18359039999996,,,,,,,,,,,,,,,,,,,,,,,,,,,,,,,,,,,,,,,,,,,,,,,,,,,,,,,,,,,,,004,001,2023-11-12_13h59.46.892,untitled,2023.2.2,60.05057459392776,2023-11-12 14h00.07.069358 +0800,
2,condition_1/rightstar.PNG,space,,,,,0,9,9,21,,,,,,,,,104.90605520000008,,,,,,,,,,,,,,,,,,,,,,,,,,,,,,,,,,,,,,,,,,,,,104.85321760000011,104.90605520000008,105.36769630000003,105.36772790000009,105.86714240000015,106.26550889999999,106.15118710000002,106.15121280000017,107.46916220000003,107.46916220000003,109.16866019999998,space,1,1.6883454000001166,None,108.283502,,,,,,,,,,,,,,,,,,,,,,,,,,,,,,,,,,,,,,,,,,,,,,,,,,,,,,,,,,,,,004,001,2023-11-12_13h59.46.892,untitled,2023.2.2,60.05057459392776,2023-11-12 14h00.07.069358 +0800,
1,condition_1/leftstar.PNG,space,,,,,0,10,10,22,,,,,,,,,109.22293230000014,,,,,,,,,,,,,,,,,,,,,,,,,,,,,,,,,,,,,,,,,,,,,109.16972050000004,109.22293230000014,109.68451249999998,109.68453810000005,110.18358090000015,110.58467610000002,110.46790600000008,110.46793079999998,111.78569110000012,111.78569110000012,112.96812309999996,space,1,1.1807538999998997,None,112.60008930000004,,,,,,,,,,,,,,,,,,,,,,,,,,,,,,,,,,,,,,,,,,,,,,,,,,,,,,,,,,,,,004,001,2023-11-12_13h59.46.892,untitled,2023.2.2,60.05057459392776,2023-11-12 14h00.07.069358 +0800,
8,condition_1/blank.PNG,space,,,,,0,11,11,24,,,,,,,,,113.02464989999999,,,,,,,,,,,,,,,,,,,,,,,,,,,,,,,,,,,,,,,,,,,,,112.96892750000006,113.02464989999999,113.48430329999997,113.4843277,113.98349150000013,114.35953380000001,114.26852750000012,114.26855130000013,115.58470179999995,115.58470179999995,118.75187189999997,space,1,3.156460199999856,None,116.38336860000004,,,,,,,,,,,,,,,,,,,,,,,,,,,,,,,,,,,,,,,,,,,,,,,,,,,,,,,,,,,,,004,001,2023-11-12_13h59.46.892,untitled,2023.2.2,60.05057459392776,2023-11-12 14h00.07.069358 +0800,
2,condition_1/leftstar.PNG,space,,,,,0,12,12,1,,,,,,,,,118.81164000000012,,,,,,,,,,,,,,,,,,,,,,,,,,,,,,,,,,,,,,,,,,,,,118.75294699999995,118.81164000000012,119.2676871000001,119.26770940000006,119.76691320000009,120.20492750000017,120.05096030000004,120.05098520000001,121.36899620000008,121.36899620000008,124.05184729999996,space,1,2.672374699999864,None,122.18358760000001,,,,,,,,,,,,,,,,,,,,,,,,,,,,,,,,,,,,,,,,,,,,,,,,,,,,,,,,,,,,,004,001,2023-11-12_13h59.46.892,untitled,2023.2.2,60.05057459392776,2023-11-12 14h00.07.069358 +0800,
8,condition_1/rightstar.PNG,right,,,,,0,13,13,6,,,,,,,,,124.10982209999997,,,,,,,,,,,,,,,,,,,,,,,,,,,,,,,,,,,,,,,,,,,,,124.05291409999995,124.10982209999997,124.56777820000002,124.56780370000001,125.06673139999998,125.48372570000015,125.35149150000007,125.35152390000007,126.66895309999995,126.66895309999995,128.28524370000014,right,1,1.6060036000001219,None,127.48359140000002,,,,,,,,,,,,,,,,,,,,,,,,,,,,,,,,,,,,,,,,,,,,,,,,,,,,,,,,,,,,,004,001,2023-11-12_13h59.46.892,untitled,2023.2.2,60.05057459392776,2023-11-12 14h00.07.069358 +0800,
1,condition_1/rightstar.PNG,space,,,,,0,14,14,4,,,,,,,,,128.35246540000003,,,,,,,,,,,,,,,,,,,,,,,,,,,,,,,,,,,,,,,,,,,,,128.28631719999998,128.35246540000003,128.80092990000003,128.80095490000008,129.30029890000014,129.73201070000005,129.5844148000001,129.58444039999995,130.9025332000001,130.9025332000001,132.21822240000006,space,1,1.3114302999999836,None,131.717083,,,,,,,,,,,,,,,,,,,,,,,,,,,,,,,,,,,,,,,,,,,,,,,,,,,,,,,,,,,,,004,001,2023-11-12_13h59.46.892,untitled,2023.2.2,60.05057459392776,2023-11-12 14h00.07.069358 +0800,
9,condition_1/leftstar.PNG,left,,,,,0,15,15,3,,,,,,,,,132.2938325,,,,,,,,,,,,,,,,,,,,,,,,,,,,,,,,,,,,,,,,,,,,,132.21932000000015,132.2938325,132.7344422000001,132.7344912000001,133.23338880000006,133.63711160000003,133.51814439999998,133.51816910000002,134.83556010000007,134.83556010000007,137.2183996000001,left,1,2.373841099999936,None,135.65012610000008,,,,,,,,,,,,,,,,,,,,,,,,,,,,,,,,,,,,,,,,,,,,,,,,,,,,,,,,,,,,,004,001,2023-11-12_13h59.46.892,untitled,2023.2.2,60.05057459392776,2023-11-12 14h00.07.069358 +0800,
8,condition_1/rightstar.PNG,right,,,,,0,16,16,14,,,,,,,,,137.2728469000001,,,,,,,,,,,,,,,,,,,,,,,,,,,,,,,,,,,,,,,,,,,,,137.2192685,137.2728469000001,137.7343452,137.73437000000013,138.23364360000005,138.6375855000001,138.5183978,138.5184286000001,139.83562540000003,139.83562540000003,141.20153010000013,right,1,1.3608509000000595,None,140.65005020000012,,,,,,,,,,,,,,,,,,,,,,,,,,,,,,,,,,,,,,,,,,,,,,,,,,,,,,,,,,,,,004,001,2023-11-12_13h59.46.892,untitled,2023.2.2,60.05057459392776,2023-11-12 14h00.07.069358 +0800,
8,condition_1/blank.PNG,space,,,,,0,17,17,10,,,,,,,,,141.25826070000016,,,,,,,,,,,,,,,,,,,,,,,,,,,,,,,,,,,,,,,,,,,,,141.20258720000015,141.25826070000016,141.7175618000001,141.71758610000006,142.21673120000014,142.62815550000005,142.50164640000003,142.5016763000001,143.81817810000007,143.81817810000007,145.2519006,space,1,1.4220941999999468,None,144.6166435,,,,,,,,,,,,,,,,,,,,,,,,,,,,,,,,,,,,,,,,,,,,,,,,,,,,,,,,,,,,,004,001,2023-11-12_13h59.46.892,untitled,2023.2.2,60.05057459392776,2023-11-12 14h00.07.069358 +0800,
9,condition_1/rightstar.PNG,right,,,,,0,18,18,7,,,,,,,,,145.31059000000005,,,,,,,,,,,,,,,,,,,,,,,,,,,,,,,,,,,,,,,,,,,,,145.25305620000017,145.31059000000005,145.76740229999996,145.7674366000001,146.26677070000005,146.82383470000013,146.5510901,146.55111570000008,147.86905840000009,147.86905840000009,148.96805700000004,right,1,1.0824224000000413,None,148.68379840000011,,,,,,,,,,,,,,,,,,,,,,,,,,,,,,,,,,,,,,,,,,,,,,,,,,,,,,,,,,,,,004,001,2023-11-12_13h59.46.892,untitled,2023.2.2,60.05057459392776,2023-11-12 14h00.07.069358 +0800,
1,condition_1/leftstar.PNG,space,,,,,0,19,19,0,,,,,,,,,149.02082240000004,,,,,,,,,,,,,,,,,,,,,,,,,,,,,,,,,,,,,,,,,,,,,148.96904949999998,149.02082240000004,149.48419450000006,149.4842189000001,149.98332870000013,150.39595540000005,150.26794889999996,150.26797469999997,151.58572860000004,151.58572860000004,152.85142710000014,space,1,1.2577214999998887,None,152.3999735,,,,,,,,,,,,,,,,,,,,,,,,,,,,,,,,,,,,,,,,,,,,,,,,,,,,,,,,,,,,,004,001,2023-11-12_13h59.46.892,untitled,2023.2.2,60.05057459392776,2023-11-12 14h00.07.069358 +0800,
1,condition_1/leftstar.PNG,space,,,,,0,20,20,16,,,,,,,,,152.9137088,,,,,,,,,,,,,,,,,,,,,,,,,,,,,,,,,,,,,,,,,,,,,152.85249440000007,152.9137088,153.36757970000008,153.3676054,153.86680790000014,154.26694680000014,154.15139969999996,154.1514247,155.46895259999997,155.46895259999997,156.85196570000016,space,1,1.3786694000000352,None,156.28344420000008,,,,,,,,,,,,,,,,,,,,,,,,,,,,,,,,,,,,,,,,,,,,,,,,,,,,,,,,,,,,,004,001,2023-11-12_13h59.46.892,untitled,2023.2.2,60.05057459392776,2023-11-12 14h00.07.069358 +0800,
9,condition_1/leftstar.PNG,left,,,,,0,21,21,20,,,,,,,,,156.91446640000004,,,,,,,,,,,,,,,,,,,,,,,,,,,,,,,,,,,,,,,,,,,,,156.85325720000014,156.91446640000004,157.36746940000012,157.3675118000001,157.86678740000002,158.28946250000013,158.15124390000005,158.15127400000006,159.46891070000015,159.46891070000015,161.2348121,left,1,1.7521686999998565,None,160.2836909,,,,,,,,,,,,,,,,,,,,,,,,,,,,,,,,,,,,,,,,,,,,,,,,,,,,,,,,,,,,,004,001,2023-11-12_13h59.46.892,untitled,2023.2.2,60.05057459392776,2023-11-12 14h00.07.069358 +0800,
9,condition_1/leftstar.PNG,left,,,,,0,22,22,19,,,,,,,,,161.29017799999997,,,,,,,,,,,,,,,,,,,,,,,,,,,,,,,,,,,,,,,,,,,,,161.2358302,161.29017799999997,161.75091770000017,161.75095750000014,162.25014669999996,162.65283610000006,162.5351098000001,162.53514659999996,163.85229960000015,163.85229960000015,165.2853239000001,left,1,1.4178455000001122,None,164.66691749999995,,,,,,,,,,,,,,,,,,,,,,,,,,,,,,,,,,,,,,,,,,,,,,,,,,,,,,,,,,,,,004,001,2023-11-12_13h59.46.892,untitled,2023.2.2,60.05057459392776,2023-11-12 14h00.07.069358 +0800,
2,condition_1/rightstar.PNG,space,,,,,0,23,23,5,,,,,,,,,165.3417356,,,,,,,,,,,,,,,,,,,,,,,,,,,,,,,,,,,,,,,,,,,,,165.28655679999997,165.3417356,165.80093499999998,165.80095989999995,166.30033270000013,166.70420250000006,166.58442149999996,166.58444840000016,167.9024859000001,167.9024859000001,169.5187459000001,space,1,1.6037461999999323,None,168.71684410000012,,,,,,,,,,,,,,,,,,,,,,,,,,,,,,,,,,,,,,,,,,,,,,,,,,,,,,,,,,,,,004,001,2023-11-12_13h59.46.892,untitled,2023.2.2,60.05057459392776,2023-11-12 14h00.07.069358 +0800,
8,condition_1/leftstar.PNG,left,,,,,0,24,24,18,,,,,,,,,169.57263469999998,,,,,,,,,,,,,,,,,,,,,,,,,,,,,,,,,,,,,,,,,,,,,169.52010870000004,169.57263469999998,170.03419329999997,170.03421849999995,170.5336158,170.93061050000006,170.8178527,170.8178894,172.1356671000001,172.1356671000001,173.90226180000013,left,1,1.7573208999999679,None,172.94998150000015,,,,,,,,,,,,,,,,,,,,,,,,,,,,,,,,,,,,,,,,,,,,,,,,,,,,,,,,,,,,,004,001,2023-11-12_13h59.46.892,untitled,2023.2.2,60.05057459392776,2023-11-12 14h00.07.069358 +0800,
8,condition_1/rightstar.PNG,right,,,,,1,0,25,6,,,,,,,,,173.95634180000002,,,,,,,,,,,,,,,,,,,,,,,,,,,,,,,,,,,,,,,,,,,,,173.90326700000014,173.95634180000002,174.417367,174.41738910000004,174.91672459999995,175.31793900000002,175.2010342000001,175.20105910000007,176.51882880000016,176.51882880000016,178.23508949999996,right,1,1.7046119000001454,None,177.33331829999997,,,,,,,,,,,,,,,,,,,,,,,,,,,,,,,,,,,,,,,,,,,,,,,,,,,,,,,,,,,,,004,001,2023-11-12_13h59.46.892,untitled,2023.2.2,60.05057459392776,2023-11-12 14h00.07.069358 +0800,
2,condition_1/leftstar.PNG,space,,,,,1,1,26,1,,,,,,,,,178.28932350000014,,,,,,,,,,,,,,,,,,,,,,,,,,,,,,,,,,,,,,,,,,,,,178.23612390000017,178.28932350000014,178.7508279000001,178.75086299999998,179.25019910000015,179.66706480000016,179.53448019999996,179.53450650000013,180.85245880000002,180.85245880000002,182.15182249999998,space,1,1.2841284000000996,None,181.6669084,,,,,,,,,,,,,,,,,,,,,,,,,,,,,,,,,,,,,,,,,,,,,,,,,,,,,,,,,,,,,004,001,2023-11-12_13h59.46.892,untitled,2023.2.2,60.05057459392776,2023-11-12 14h00.07.069358 +0800,
9,condition_1/leftstar.PNG,left,,,,,1,2,27,3,,,,,,,,,182.2063799,,,,,,,,,,,,,,,,,,,,,,,,,,,,,,,,,,,,,,,,,,,,,182.15275810000003,182.2063799,182.66794100000016,182.66796590000013,183.16681119999998,183.5681429000001,183.45110710000017,183.4511324,184.76896490000013,184.76896490000013,186.13505410000016,left,1,1.3586821000001237,None,185.58361850000006,,,,,,,,,,,,,,,,,,,,,,,,,,,,,,,,,,,,,,,,,,,,,,,,,,,,,,,,,,,,,004,001,2023-11-12_13h59.46.892,untitled,2023.2.2,60.05057459392776,2023-11-12 14h00.07.069358 +0800,
2,condition_1/blank.PNG,space,,,,,1,3,28,9,,,,,,,,,186.18918159999998,,,,,,,,,,,,,,,,,,,,,,,,,,,,,,,,,,,,,,,,,,,,,186.1361531,186.18918159999998,186.65074550000008,186.65077010000005,187.15013799999997,187.55945670000006,187.43438490000017,187.43440950000013,188.75150230000008,188.75150230000008,189.68504810000013,space,1,0.9182740000001104,None,189.55028930000003,,,,,,,,,,,,,,,,,,,,,,,,,,,,,,,,,,,,,,,,,,,,,,,,,,,,,,,,,,,,,004,001,2023-11-12_13h59.46.892,untitled,2023.2.2,60.05057459392776,2023-11-12 14h00.07.069358 +0800,
1,condition_1/leftstar.PNG,space,,,,,1,4,29,0,,,,,,,,,189.7393075,,,,,,,,,,,,,,,,,,,,,,,,,,,,,,,,,,,,,,,,,,,,,189.68625340000017,189.7393075,190.20117789999995,190.20120420000012,190.70073300000013,191.22034129999997,190.98455179999996,190.98458359999995,192.30246120000015,192.30246120000015,193.70183300000008,space,1,1.38608360000012,None,193.1167825,,,,,,,,,,,,,,,,,,,,,,,,,,,,,,,,,,,,,,,,,,,,,,,,,,,,,,,,,,,,,004,001,2023-11-12_13h59.46.892,untitled,2023.2.2,60.05057459392776,2023-11-12 14h00.07.069358 +0800,
1,condition_1/leftstar.PNG,space,,,,,1,5,30,22,,,,,,,,,193.75580320000017,,,,,,,,,,,,,,,,,,,,,,,,,,,,,,,,,,,,,,,,,,,,,193.7030337000001,193.75580320000017,194.21826469999996,194.2183238,194.71700699999997,195.15026120000016,195.00110180000001,195.00112550000017,196.3187640000001,196.3187640000001,197.50162130000012,space,1,1.1660770999999386,None,197.13341090000017,,,,,,,,,,,,,,,,,,,,,,,,,,,,,,,,,,,,,,,,,,,,,,,,,,,,,,,,,,,,,004,001,2023-11-12_13h59.46.892,untitled,2023.2.2,60.05057459392776,2023-11-12 14h00.07.069358 +0800,
9,condition_1/rightstar.PNG,right,,,,,1,6,31,7,,,,,,,,,197.55163700000003,,,,,,,,,,,,,,,,,,,,,,,,,,,,,,,,,,,,,,,,,,,,,197.50268559999995,197.55163700000003,198.01757429999998,198.0176206000001,198.51681660000008,198.9525321000001,198.80113930000016,198.80116339999995,200.11911239999995,200.11911239999995,201.41886450000015,right,1,1.2957673000000796,None,200.93359400000008,,,,,,,,,,,,,,,,,,,,,,,,,,,,,,,,,,,,,,,,,,,,,,,,,,,,,,,,,,,,,004,001,2023-11-12_13h59.46.892,untitled,2023.2.2,60.05057459392776,2023-11-12 14h00.07.069358 +0800,
9,condition_1/leftstar.PNG,left,,,,,1,7,32,19,,,,,,,,,201.47722080000017,,,,,,,,,,,,,,,,,,,,,,,,,,,,,,,,,,,,,,,,,,,,,201.42007149999995,201.47722080000017,201.93418710000014,201.9342868000001,202.43333630000006,202.8483059,202.71761260000017,202.7176376,204.03572550000013,204.03572550000013,205.53587220000009,left,1,1.483198899999934,None,204.84995479999998,,,,,,,,,,,,,,,,,,,,,,,,,,,,,,,,,,,,,,,,,,,,,,,,,,,,,,,,,,,,,004,001,2023-11-12_13h59.46.892,untitled,2023.2.2,60.05057459392776,2023-11-12 14h00.07.069358 +0800,
8,condition_1/blank.PNG,space,,,,,1,8,33,10,,,,,,,,,205.5893833,,,,,,,,,,,,,,,,,,,,,,,,,,,,,,,,,,,,,,,,,,,,,205.5375007,205.5893833,206.0508866,206.05091030000017,206.55024120000007,206.9249155,206.83418740000002,206.8342129,208.15143540000008,208.15143540000008,210.18509719999997,space,1,2.0241492000000108,None,208.94999800000005,,,,,,,,,,,,,,,,,,,,,,,,,,,,,,,,,,,,,,,,,,,,,,,,,,,,,,,,,,,,,004,001,2023-11-12_13h59.46.892,untitled,2023.2.2,60.05057459392776,2023-11-12 14h00.07.069358 +0800,
8,condition_1/rightstar.PNG,right,,,,,1,9,34,23,,,,,,,,,210.24267580000014,,,,,,,,,,,,,,,,,,,,,,,,,,,,,,,,,,,,,,,,,,,,,210.1861219,210.24267580000014,210.7007897000001,210.70083160000013,211.20010350000007,211.6207389000001,211.48498040000004,211.4850136,212.80228439999996,212.80228439999996,214.6023235,right,1,1.7886725999999271,None,213.61692749999997,,,,,,,,,,,,,,,,,,,,,,,,,,,,,,,,,,,,,,,,,,,,,,,,,,,,,,,,,,,,,004,001,2023-11-12_13h59.46.892,untitled,2023.2.2,60.05057459392776,2023-11-12 14h00.07.069358 +0800,
2,condition_1/rightstar.PNG,space,,,,,1,10,35,13,,,,,,,,,214.65654059999997,,,,,,,,,,,,,,,,,,,,,,,,,,,,,,,,,,,,,,,,,,,,,214.60330590000012,214.65654059999997,215.11767410000016,215.11769890000005,215.61662620000016,216.01363300000003,215.90074260000006,215.9007673000001,217.21890329999997,217.21890329999997,218.38496699999996,space,1,1.1603816000001643,None,218.03336120000017,,,,,,,,,,,,,,,,,,,,,,,,,,,,,,,,,,,,,,,,,,,,,,,,,,,,,,,,,,,,,004,001,2023-11-12_13h59.46.892,untitled,2023.2.2,60.05057459392776,2023-11-12 14h00.07.069358 +0800,
1,condition_1/blank.PNG,space,,,,,1,11,36,8,,,,,,,,,218.43643859999997,,,,,,,,,,,,,,,,,,,,,,,,,,,,,,,,,,,,,,,,,,,,,218.3861081,218.43643859999997,218.90078300000005,218.90082440000015,219.40038900000013,219.76556530000016,219.68439920000014,219.6844248,221.0014638,221.0014638,221.91845540000008,space,1,0.914064099999905,None,221.80001620000007,,,,,,,,,,,,,,,,,,,,,,,,,,,,,,,,,,,,,,,,,,,,,,,,,,,,,,,,,,,,,004,001,2023-11-12_13h59.46.892,untitled,2023.2.2,60.05057459392776,2023-11-12 14h00.07.069358 +0800,
9,condition_1/blank.PNG,space,,,,,1,12,37,11,,,,,,,,,221.96953329999997,,,,,,,,,,,,,,,,,,,,,,,,,,,,,,,,,,,,,,,,,,,,,221.91952850000007,221.96953329999997,222.43414830000006,222.4341727000001,222.93344820000016,223.25255900000002,223.21760859999995,223.21764470000016,224.5350429,224.5350429,226.83490470000015,space,1,2.2932802000000265,None,225.35057900000015,,,,,,,,,,,,,,,,,,,,,,,,,,,,,,,,,,,,,,,,,,,,,,,,,,,,,,,,,,,,,004,001,2023-11-12_13h59.46.892,untitled,2023.2.2,60.05057459392776,2023-11-12 14h00.07.069358 +0800,
8,condition_1/rightstar.PNG,right,,,,,1,13,38,14,,,,,,,,,226.89198290000013,,,,,,,,,,,,,,,,,,,,,,,,,,,,,,,,,,,,,,,,,,,,,226.8359382000001,226.89198290000013,227.3511926000001,227.3512158000001,227.8504250000001,228.41265810000004,228.1345421000001,228.1345741,229.45235850000017,229.45235850000017,232.30121950000012,right,1,2.8376499000000877,None,230.26654759999997,,,,,,,,,,,,,,,,,,,,,,,,,,,,,,,,,,,,,,,,,,,,,,,,,,,,,,,,,,,,,004,001,2023-11-12_13h59.46.892,untitled,2023.2.2,60.05057459392776,2023-11-12 14h00.07.069358 +0800,
8,condition_1/leftstar.PNG,left,,,,,1,14,39,18,,,,,,,,,232.37541680000004,,,,,,,,,,,,,,,,,,,,,,,,,,,,,,,,,,,,,,,,,,,,,232.30229430000009,232.37541680000004,232.8174623,232.8174947,233.31664180000007,233.71712679999996,233.60089590000007,233.60092170000007,234.9183719,234.9183719,237.26799100000017,left,1,2.3372306999999637,None,235.7166499,,,,,,,,,,,,,,,,,,,,,,,,,,,,,,,,,,,,,,,,,,,,,,,,,,,,,,,,,,,,,004,001,2023-11-12_13h59.46.892,untitled,2023.2.2,60.05057459392776,2023-11-12 14h00.07.069358 +0800,
2,condition_1/leftstar.PNG,space,,,,,1,15,40,17,,,,,,,,,237.32346959999995,,,,,,,,,,,,,,,,,,,,,,,,,,,,,,,,,,,,,,,,,,,,,237.26900309999996,237.32346959999995,237.78410630000008,237.78414180000004,238.28360190000012,238.68251550000014,238.56763739999997,238.56766500000003,239.8858947000001,239.8858947000001,241.86827230000017,space,1,1.9660216999998283,None,240.70009890000006,,,,,,,,,,,,,,,,,,,,,,,,,,,,,,,,,,,,,,,,,,,,,,,,,,,,,,,,,,,,,004,001,2023-11-12_13h59.46.892,untitled,2023.2.2,60.05057459392776,2023-11-12 14h00.07.069358 +0800,
1,condition_1/rightstar.PNG,space,,,,,1,16,41,12,,,,,,,,,241.92323650000003,,,,,,,,,,,,,,,,,,,,,,,,,,,,,,,,,,,,,,,,,,,,,241.86942150000004,241.92323650000003,242.3840428000001,242.38406750000013,242.88361910000003,243.28489430000013,243.16747510000005,243.1675004000001,244.48572630000012,244.48572630000012,246.03555970000002,space,1,1.5412317999998777,None,245.3000124,,,,,,,,,,,,,,,,,,,,,,,,,,,,,,,,,,,,,,,,,,,,,,,,,,,,,,,,,,,,,004,001,2023-11-12_13h59.46.892,untitled,2023.2.2,60.05057459392776,2023-11-12 14h00.07.069358 +0800,
9,condition_1/leftstar.PNG,left,,,,,1,17,42,20,,,,,,,,,246.0915731,,,,,,,,,,,,,,,,,,,,,,,,,,,,,,,,,,,,,,,,,,,,,246.03663260000008,246.0915731,246.5508033000001,246.55084669999997,247.05026780000003,247.46538450000003,247.33444830000008,247.33447290000004,248.6520875000001,248.6520875000001,251.11856390000003,left,1,2.464029400000072,None,249.46684170000003,,,,,,,,,,,,,,,,,,,,,,,,,,,,,,,,,,,,,,,,,,,,,,,,,,,,,,,,,,,,,004,001,2023-11-12_13h59.46.892,untitled,2023.2.2,60.05057459392776,2023-11-12 14h00.07.069358 +0800,
9,condition_1/rightstar.PNG,right,,,,,1,18,43,15,,,,,,,,,251.21163109999998,,,,,,,,,,,,,,,,,,,,,,,,,,,,,,,,,,,,,,,,,,,,,251.1198191000001,251.21163109999998,251.63417290000007,251.63420429999996,252.1334422,252.55408110000008,252.41766280000002,252.41768810000008,253.7353845,253.7353845,255.13490260000003,right,1,1.3834343999999419,None,254.55010220000008,,,,,,,,,,,,,,,,,,,,,,,,,,,,,,,,,,,,,,,,,,,,,,,,,,,,,,,,,,,,,004,001,2023-11-12_13h59.46.892,untitled,2023.2.2,60.05057459392776,2023-11-12 14h00.07.069358 +0800,
2,condition_1/rightstar.PNG,space,,,,,1,19,44,21,,,,,,,,,255.18483560000004,,,,,,,,,,,,,,,,,,,,,,,,,,,,,,,,,,,,,,,,,,,,,255.13593360000004,255.18483560000004,255.65091310000003,255.65094969999996,256.14999910000006,256.5654138,256.4347179000001,256.43476090000013,257.75210119999997,257.75210119999997,259.21820560000015,space,1,1.4537132000000383,None,258.5666120000001,,,,,,,,,,,,,,,,,,,,,,,,,,,,,,,,,,,,,,,,,,,,,,,,,,,,,,,,,,,,,004,001,2023-11-12_13h59.46.892,untitled,2023.2.2,60.05057459392776,2023-11-12 14h00.07.069358 +0800,
1,condition_1/leftstar.PNG,space,,,,,1,20,45,16,,,,,,,,,259.2925755000001,,,,,,,,,,,,,,,,,,,,,,,,,,,,,,,,,,,,,,,,,,,,,259.21920150000005,259.2925755000001,259.73422400000004,259.7342804,260.2332507000001,260.64056370000003,260.51792539999997,260.51795390000007,261.83558570000014,261.83558570000014,263.03554529999997,space,1,1.190433399999847,None,262.65022150000004,,,,,,,,,,,,,,,,,,,,,,,,,,,,,,,,,,,,,,,,,,,,,,,,,,,,,,,,,,,,,004,001,2023-11-12_13h59.46.892,untitled,2023.2.2,60.05057459392776,2023-11-12 14h00.07.069358 +0800,
8,condition_1/blank.PNG,space,,,,,1,21,46,24,,,,,,,,,263.08892949999995,,,,,,,,,,,,,,,,,,,,,,,,,,,,,,,,,,,,,,,,,,,,,263.03687860000014,263.08892949999995,263.5510124,263.5510772,264.05026910000015,264.47167490000015,264.33431429999996,264.3343387,265.6511561,265.6511561,266.6180597,space,1,0.9561520999998265,None,266.45004259999996,,,,,,,,,,,,,,,,,,,,,,,,,,,,,,,,,,,,,,,,,,,,,,,,,,,,,,,,,,,,,004,001,2023-11-12_13h59.46.892,untitled,2023.2.2,60.05057459392776,2023-11-12 14h00.07.069358 +0800,
1,condition_1/rightstar.PNG,space,,,,,1,22,47,4,,,,,,,,,266.66720970000006,,,,,,,,,,,,,,,,,,,,,,,,,,,,,,,,,,,,,,,,,,,,,266.6190573000001,266.66720970000006,267.13403360000007,267.1340580000001,267.6335137000001,268.1633709,267.91851680000013,267.91855210000017,269.23630550000007,269.23630550000007,271.0520991000001,space,1,1.8038767000000462,None,270.05029979999995,,,,,,,,,,,,,,,,,,,,,,,,,,,,,,,,,,,,,,,,,,,,,,,,,,,,,,,,,,,,,004,001,2023-11-12_13h59.46.892,untitled,2023.2.2,60.05057459392776,2023-11-12 14h00.07.069358 +0800,
2,condition_1/rightstar.PNG,space,,,,,1,23,48,5,,,,,,,,,271.1195172,,,,,,,,,,,,,,,,,,,,,,,,,,,,,,,,,,,,,,,,,,,,,271.05332240000007,271.1195172,271.5675269000001,271.56756640000003,272.0668071,272.4903727000001,272.3511856,272.3512118000001,273.6689159,273.6689159,274.9681627,space,1,1.2840289000000666,None,274.48346100000003,,,,,,,,,,,,,,,,,,,,,,,,,,,,,,,,,,,,,,,,,,,,,,,,,,,,,,,,,,,,,004,001,2023-11-12_13h59.46.892,untitled,2023.2.2,60.05057459392776,2023-11-12 14h00.07.069358 +0800,
8,condition_1/leftstar.PNG,left,,,,,1,24,49,2,,,,,,,,,275.03047519999996,,,,,,,,,,,,,,,,,,,,,,,,,,,,,,,,,,,,,,,,,,,,,274.96923400000014,275.03047519999996,275.4846407,275.48466370000006,275.9833834000001,276.4328309,276.2674683,276.26749029999996,277.5857019,277.5857019,279.53661120000015,left,1,1.9462575000000015,None,278.39993890000005,,,,,,,,,,,,,,,,,,,,,,,,,,,,,,,,,,,,,,,,,,,,,,,,,,,,,,,,,,,,,004,001,2023-11-12_13h59.46.892,untitled,2023.2.2,60.05057459392776,2023-11-12 14h00.07.069358 +0800,
,,,,,,,,,,,,,,,,,,,,,,,,,,,,,,,,,,,,,,,,,,,,,,,,,,,,,,,,,,,,,,,,,,,,,,,,,,,,,,,,279.5373892,279.5499462,279.5499462,313.5018049,space,33.939169999999876,None,,,,,,,,,,,,,,,,,,,,,,,,,,,,,,,,,,,,,,,,,,,,,,,,,,,,,,004,001,2023-11-12_13h59.46.892,untitled,2023.2.2,60.05057459392776,2023-11-12 14h00.07.069358 +0800,
,,,,,,,,,,,,,,,,,,,,,,,,,,,,,,,,,,,,,,,,,,,,,,,,,,,,,,,,,,,,,,,,,,,,,,,,,,,,,,,,,,,,,,,313.5018646000001,313.51654570000005,313.51654570000005,320.83639360000006,space,7.316566199999897,None,,,,,,,,,,,,,,,,,,,,,,,,,,,,,,,,,,,,,,,,,,,,,,,004,001,2023-11-12_13h59.46.892,untitled,2023.2.2,60.05057459392776,2023-11-12 14h00.07.069358 +0800,
2,test2/leftstar.PNG,left,,,,,,,,,0,0,0,4,,,,,320.9801474000001,,,,,,,,,,,,,,,,,,,,,,,,,,,,,,,,,,,,,,,,,,,,,,,,,,,,,,,,,,,,,,,,,,,,,,,,,,,320.8537097000001,320.9801474000001,321.3511346,321.3511740000001,321.85018660000014,322.4136647,322.13457059999996,322.1346062,323.4619593,323.4619593,324.26678800000013,326.0348421000001,space,2.5566859000000477,None,,,,,,,,,,,,,,,,,,,,,,,,,,,,,,,,004,001,2023-11-12_13h59.46.892,untitled,2023.2.2,60.05057459392776,2023-11-12 14h00.07.069358 +0800,
8,test2/rightstar.PNG,space,,,,,,,,,0,1,1,1,,,,,326.0884579000001,,,,,,,,,,,,,,,,,,,,,,,,,,,,,,,,,,,,,,,,,,,,,,,,,,,,,,,,,,,,,,,,,,,,,,,,,,,326.0359688000001,326.0884579000001,326.5505591000001,326.55058600000007,327.04998980000005,327.4525469,327.33465150000006,327.33468760000005,328.6522757,328.6522757,329.46658890000003,330.03488930000003,space,1.3693865000000187,None,,,,,,,,,,,,,,,,,,,,,,,,,,,,,,,,004,001,2023-11-12_13h59.46.892,untitled,2023.2.2,60.05057459392776,2023-11-12 14h00.07.069358 +0800,
1,test2/leftstar.PNG,left,,,,,,,,,0,2,2,0,,,,,330.0910759000001,,,,,,,,,,,,,,,,,,,,,,,,,,,,,,,,,,,,,,,,,,,,,,,,,,,,,,,,,,,,,,,,,,,,,,,,,,,330.0361971,330.0910759000001,330.55054440000004,330.5505865,331.0498695000001,331.45092309999995,331.33479450000004,331.33483509999996,332.65229610000006,332.65229610000006,333.46667350000007,333.93504400000006,left,1.2811935000001995,None,,,,,,,,,,,,,,,,,,,,,,,,,,,,,,,,004,001,2023-11-12_13h59.46.892,untitled,2023.2.2,60.05057459392776,2023-11-12 14h00.07.069358 +0800,
9,test2/rightstar.PNG,space,,,,,,,,,0,3,3,3,,,,,333.9932957000001,,,,,,,,,,,,,,,,,,,,,,,,,,,,,,,,,,,,,,,,,,,,,,,,,,,,,,,,,,,,,,,,,,,,,,,,,,,333.9360041,333.9932957000001,334.4504670000001,334.4504935,334.95026240000016,335.3542500000001,335.23453300000006,335.23455920000015,336.55221200000005,336.55221200000005,,337.1027672,space,0.5423958999999741,None,,,,,,,,,,,,,,,,,,,,,,,,,,,,,,,,004,001,2023-11-12_13h59.46.892,untitled,2023.2.2,60.05057459392776,2023-11-12 14h00.07.069358 +0800,
8,test2/rightstar.PNG,space,,,,,,,,,0,4,4,5,,,,,337.15910329999997,,,,,,,,,,,,,,,,,,,,,,,,,,,,,,,,,,,,,,,,,,,,,,,,,,,,,,,,,,,,,,,,,,,,,,,,,,,337.1038969000001,337.15910329999997,337.61742419999996,337.6174492,338.1168321,338.52644140000007,338.4010479000001,338.40107510000007,339.71891070000015,339.71891070000015,340.5335506000001,340.90211309999995,space,1.1776942999999847,None,,,,,,,,,,,,,,,,,,,,,,,,,,,,,,,,004,001,2023-11-12_13h59.46.892,untitled,2023.2.2,60.05057459392776,2023-11-12 14h00.07.069358 +0800,
1,test2/blank.PNG,space,,,,,,,,,0,5,5,2,,,,,340.9591693,,,,,,,,,,,,,,,,,,,,,,,,,,,,,,,,,,,,,,,,,,,,,,,,,,,,,,,,,,,,,,,,,,,,,,,,,,,340.9031807000001,340.9591693,341.4172624,341.41730180000013,341.91671210000004,342.3956230000001,342.20096680000006,342.2009978000001,343.51774360000013,343.51774360000013,344.3168584,344.7684710000001,space,1.2360105000000203,None,,,,,,,,,,,,,,,,,,,,,,,,,,,,,,,,004,001,2023-11-12_13h59.46.892,untitled,2023.2.2,60.05057459392776,2023-11-12 14h00.07.069358 +0800,
,,,,,,,,,,,,,,,,,,,,,,,,,,,,,,,,,,,,,,,,,,,,,,,,,,,,,,,,,,,,,,,,,,,,,,,,,,,,,,,,,,,,,,,,,,,,,,,,,,,,,,,,,,,,,344.76909739999996,344.78342010000006,344.78342010000006,345.7832740000001,348.50153250000017,space,3.7032288000000335,None,,,,,,,,,,,,,,,,,,,,,,,,004,001,2023-11-12_13h59.46.892,untitled,2023.2.2,60.05057459392776,2023-11-12 14h00.07.069358 +0800,
,,,,,,,,,,,,,,,,,,,,,,,,,,,,,,,,,,,,,,,,,,,,,,,,,,,,,,,,,,,,,,,,,,,,,,,,,,,,,,,,,,,,,,,,,,,,,,,,,,,,,,,,,,,,,,,,,,,,,348.50159380000014,348.5168920000001,348.5168920000001,349.46868110000014,space,0.9500101000000996,None,,,,,,,,,,,,,,,,,004,001,2023-11-12_13h59.46.892,untitled,2023.2.2,60.05057459392776,2023-11-12 14h00.07.069358 +0800,
9,condition_2/blank.PNG,space,,,,,,,,,,,,,0,0,0,11,349.6011298000001,,,,,,,,,,,,,,,,,,,,,,,,,,,,,,,,,,,,,,,,,,,,,,,,,,,,,,,,,,,,,,,,,,,,,,,,,,,,,,,,,,,,,,,,,,,,,,,,,,,,,,,,,349.4889671000001,349.6011298000001,349.9840663,349.98409590000006,350.48314159999995,350.89690100000007,350.76761980000015,350.76765650000016,352.08513700000003,352.08513700000003,352.8999403,353.7516018000001,space,1,1.6523440999999366,None,004,001,2023-11-12_13h59.46.892,untitled,2023.2.2,60.05057459392776,2023-11-12 14h00.07.069358 +0800,
8,condition_2/rightstar.PNG,space,,,,,,,,,,,,,0,1,1,23,353.7996879,,,,,,,,,,,,,,,,,,,,,,,,,,,,,,,,,,,,,,,,,,,,,,,,,,,,,,,,,,,,,,,,,,,,,,,,,,,,,,,,,,,,,,,,,,,,,,,,,,,,,,,,,353.75288680000017,353.7996879,354.2674178,354.2674635000001,354.7668159,355.37168859999997,355.05131000000006,355.05133939999996,356.3688804000001,356.3688804000001,357.18351810000013,357.7349590000001,space,1,1.3626423000000614,None,004,001,2023-11-12_13h59.46.892,untitled,2023.2.2,60.05057459392776,2023-11-12 14h00.07.069358 +0800,
1,condition_2/rightstar.PNG,right,,,,,,,,,,,,,0,2,2,12,357.7976407000001,,,,,,,,,,,,,,,,,,,,,,,,,,,,,,,,,,,,,,,,,,,,,,,,,,,,,,,,,,,,,,,,,,,,,,,,,,,,,,,,,,,,,,,,,,,,,,,,,,,,,,,,,357.7360324000001,357.7976407000001,358.2509792000001,358.25102660000016,358.75012690000017,359.1514165000001,359.0348841,359.0349254,360.3521581,360.3521581,361.16666469999996,362.0522314,right,1,1.6979639000001043,None,004,001,2023-11-12_13h59.46.892,untitled,2023.2.2,60.05057459392776,2023-11-12 14h00.07.069358 +0800,
2,condition_2/rightstar.PNG,left,,,,,,,,,,,,,0,3,3,5,362.11119210000015,,,,,,,,,,,,,,,,,,,,,,,,,,,,,,,,,,,,,,,,,,,,,,,,,,,,,,,,,,,,,,,,,,,,,,,,,,,,,,,,,,,,,,,,,,,,,,,,,,,,,,,,,362.05333229999997,362.11119210000015,362.5673770000001,362.56740119999995,363.06686850000006,363.4947029,363.3515953000001,363.3516233,364.66894360000015,364.66894360000015,365.48340540000004,365.90140199999996,right,0,1.2161126000000877,None,004,001,2023-11-12_13h59.46.892,untitled,2023.2.2,60.05057459392776,2023-11-12 14h00.07.069358 +0800,
9,condition_2/leftstar.PNG,space,,,,,,,,,,,,,0,4,4,24,365.9844889000001,,,,,,,,,,,,,,,,,,,,,,,,,,,,,,,,,,,,,,,,,,,,,,,,,,,,,,,,,,,,,,,,,,,,,,,,,,,,,,,,,,,,,,,,,,,,,,,,,,,,,,,,,365.90254219999997,365.9844889000001,366.4174253000001,366.41746280000007,366.91681730000005,367.38419120000003,367.2015831000001,367.20164090000003,368.51895090000016,368.51895090000016,369.3334790000001,370.0843939000001,space,1,1.548673400000098,None,004,001,2023-11-12_13h59.46.892,untitled,2023.2.2,60.05057459392776,2023-11-12 14h00.07.069358 +0800,
8,condition_2/rightstar.PNG,space,,,,,,,,,,,,,0,5,5,14,370.13309720000007,,,,,,,,,,,,,,,,,,,,,,,,,,,,,,,,,,,,,,,,,,,,,,,,,,,,,,,,,,,,,,,,,,,,,,,,,,,,,,,,,,,,,,,,,,,,,,,,,,,,,,,,,370.08540689999995,370.13309720000007,370.6007542,370.6007827000001,371.10013649999996,371.5073,371.38444900000013,371.38448029999995,372.70202300000005,372.70202300000005,373.5166597,373.93484030000013,space,1,1.2255497999999534,None,004,001,2023-11-12_13h59.46.892,untitled,2023.2.2,60.05057459392776,2023-11-12 14h00.07.069358 +0800,
8,condition_2/leftstar.PNG,space,,,,,,,,,,,,,0,6,6,18,373.9885816000001,,,,,,,,,,,,,,,,,,,,,,,,,,,,,,,,,,,,,,,,,,,,,,,,,,,,,,,,,,,,,,,,,,,,,,,,,,,,,,,,,,,,,,,,,,,,,,,,,,,,,,,,,373.9359240000001,373.9885816000001,374.45080740000003,374.45083339999996,374.949924,375.3495713,375.23441030000004,375.2344379000001,376.5521016,376.5521016,377.36717580000004,377.6182516000001,space,1,1.062927899999977,None,004,001,2023-11-12_13h59.46.892,untitled,2023.2.2,60.05057459392776,2023-11-12 14h00.07.069358 +0800,
9,condition_2/rightstar.PNG,space,,,,,,,,,,,,,0,7,7,15,377.66858920000004,,,,,,,,,,,,,,,,,,,,,,,,,,,,,,,,,,,,,,,,,,,,,,,,,,,,,,,,,,,,,,,,,,,,,,,,,,,,,,,,,,,,,,,,,,,,,,,,,,,,,,,,,377.6189752,377.66858920000004,378.1344746,378.13450280000006,378.63331289999996,379.0432125,378.9178267,378.91787650000015,380.23546810000016,380.23546810000016,381.0498761000001,381.70153960000016,space,1,1.4564648999999008,None,004,001,2023-11-12_13h59.46.892,untitled,2023.2.2,60.05057459392776,2023-11-12 14h00.07.069358 +0800,
9,condition_2/leftstar.PNG,space,,,,,,,,,,,,,0,8,8,3,381.75994360000004,,,,,,,,,,,,,,,,,,,,,,,,,,,,,,,,,,,,,,,,,,,,,,,,,,,,,,,,,,,,,,,,,,,,,,,,,,,,,,,,,,,,,,,,,,,,,,,,,,,,,,,,,381.70258149999995,381.75994360000004,382.2177143000001,382.21774330000017,382.71699609999996,383.1226650000001,383.0008984000001,383.00094149999995,384.31859140000006,384.31859140000006,385.1334320000001,386.03617740000004,space,1,1.7123959999998988,None,004,001,2023-11-12_13h59.46.892,untitled,2023.2.2,60.05057459392776,2023-11-12 14h00.07.069358 +0800,
9,condition_2/rightstar.PNG,space,,,,,,,,,,,,,0,9,9,7,386.0941342000001,,,,,,,,,,,,,,,,,,,,,,,,,,,,,,,,,,,,,,,,,,,,,,,,,,,,,,,,,,,,,,,,,,,,,,,,,,,,,,,,,,,,,,,,,,,,,,,,,,,,,,,,,386.03734269999995,386.0941342000001,386.5507288000001,386.55077070000016,387.04979590000016,387.46667790000015,387.3342441,387.3342718000001,388.65207340000006,388.65207340000006,389.4664699,390.135182,space,1,1.4779358000000684,None,004,001,2023-11-12_13h59.46.892,untitled,2023.2.2,60.05057459392776,2023-11-12 14h00.07.069358 +0800,
2,condition_2/blank.PNG,space,,,,,,,,,,,,,0,10,10,9,390.18787970000017,,,,,,,,,,,,,,,,,,,,,,,,,,,,,,,,,,,,,,,,,,,,,,,,,,,,,,,,,,,,,,,,,,,,,,,,,,,,,,,,,,,,,,,,,,,,,,,,,,,,,,,,,390.13633060000006,390.18787970000017,390.6508332000001,390.6508612,391.1499808000001,391.57289149999997,391.43465030000016,391.43470690000004,392.75121220000005,392.75121220000005,393.55012280000005,394.2859085,space,1,1.5206066000000646,None,004,001,2023-11-12_13h59.46.892,untitled,2023.2.2,60.05057459392776,2023-11-12 14h00.07.069358 +0800,
1,condition_2/leftstar.PNG,left,,,,,,,,,,,,,0,11,11,0,394.35601340000017,,,,,,,,,,,,,,,,,,,,,,,,,,,,,,,,,,,,,,,,,,,,,,,,,,,,,,,,,,,,,,,,,,,,,,,,,,,,,,,,,,,,,,,,,,,,,,,,,,,,,,,,,394.28706220000004,394.35601340000017,394.8007712000001,394.8008400000001,395.30023129999995,395.82644900000014,395.58473260000005,395.5847937000001,396.90191189999996,396.90191189999996,397.7167578000001,398.7682999000001,left,1,1.8597858000000542,None,004,001,2023-11-12_13h59.46.892,untitled,2023.2.2,60.05057459392776,2023-11-12 14h00.07.069358 +0800,
8,condition_2/leftstar.PNG,space,,,,,,,,,,,,,0,12,12,2,398.84559680000007,,,,,,,,,,,,,,,,,,,,,,,,,,,,,,,,,,,,,,,,,,,,,,,,,,,,,,,,,,,,,,,,,,,,,,,,,,,,,,,,,,,,,,,,,,,,,,,,,,,,,,,,,398.76938240000004,398.84559680000007,399.28411010000013,399.28415870000003,399.7832602000001,400.1991829000001,400.06796529999997,400.0679924000001,401.38552400000003,401.38552400000003,402.19979980000016,402.6014159000001,space,1,1.2062765000000581,None,004,001,2023-11-12_13h59.46.892,untitled,2023.2.2,60.05057459392776,2023-11-12 14h00.07.069358 +0800,
1,condition_2/leftstar.PNG,left,,,,,,,,,,,,,0,13,13,16,402.650576,,,,,,,,,,,,,,,,,,,,,,,,,,,,,,,,,,,,,,,,,,,,,,,,,,,,,,,,,,,,,,,,,,,,,,,,,,,,,,,,,,,,,,,,,,,,,,,,,,,,,,,,,402.60246270000016,402.650576,403.11762080000017,403.11764900000003,403.6166052000001,404.04353890000016,403.90111290000004,403.9011448000001,405.21911790000013,405.21911790000013,406.03322300000013,407.4182584,left,1,2.1907447999999476,None,004,001,2023-11-12_13h59.46.892,untitled,2023.2.2,60.05057459392776,2023-11-12 14h00.07.069358 +0800,
2,condition_2/leftstar.PNG,left,,,,,,,,,,,,,0,14,14,17,407.4694485,,,,,,,,,,,,,,,,,,,,,,,,,,,,,,,,,,,,,,,,,,,,,,,,,,,,,,,,,,,,,,,,,,,,,,,,,,,,,,,,,,,,,,,,,,,,,,,,,,,,,,,,,407.4193362000001,407.4694485,407.934203,407.9342322,408.43338170000015,408.84064350000017,408.71743549999997,408.71746299999995,410.03556649999996,410.03556649999996,410.85017519999997,411.55143940000016,left,1,1.5070072000000891,None,004,001,2023-11-12_13h59.46.892,untitled,2023.2.2,60.05057459392776,2023-11-12 14h00.07.069358 +0800,
1,condition_2/blank.PNG,space,,,,,,,,,,,,,0,15,15,8,411.62204440000005,,,,,,,,,,,,,,,,,,,,,,,,,,,,,,,,,,,,,,,,,,,,,,,,,,,,,,,,,,,,,,,,,,,,,,,,,,,,,,,,,,,,,,,,,,,,,,,,,,,,,,,,,411.55246680000005,411.62204440000005,412.06729770000015,412.06733510000004,412.5665484000001,412.9725254,412.8525539,412.8525895,414.16760840000006,414.16760840000006,414.96682080000005,416.0517377000001,space,1,1.8741592999999739,None,004,001,2023-11-12_13h59.46.892,untitled,2023.2.2,60.05057459392776,2023-11-12 14h00.07.069358 +0800,
9,condition_2/leftstar.PNG,space,,,,,,,,,,,,,0,16,16,19,416.118236,,,,,,,,,,,,,,,,,,,,,,,,,,,,,,,,,,,,,,,,,,,,,,,,,,,,,,,,,,,,,,,,,,,,,,,,,,,,,,,,,,,,,,,,,,,,,,,,,,,,,,,,,416.0528204,416.118236,416.5669488000001,416.56696310000007,417.0665375000001,417.50685980000003,417.35195650000014,417.3519936,418.66878250000013,418.66878250000013,419.4833390000001,419.93506,space,1,1.2496871999999257,None,004,001,2023-11-12_13h59.46.892,untitled,2023.2.2,60.05057459392776,2023-11-12 14h00.07.069358 +0800,
2,condition_2/leftstar.PNG,left,,,,,,,,,,,,,0,17,17,1,419.9881709000001,,,,,,,,,,,,,,,,,,,,,,,,,,,,,,,,,,,,,,,,,,,,,,,,,,,,,,,,,,,,,,,,,,,,,,,,,,,,,,,,,,,,,,,,,,,,,,,,,,,,,,,,,419.9363194,419.9881709000001,420.4507152000001,420.45074710000017,420.95006680000006,421.35023190000015,421.23451050000017,421.23453760000007,422.55213460000004,422.55213460000004,423.3664599000001,423.8848375,left,1,1.316910400000097,None,004,001,2023-11-12_13h59.46.892,untitled,2023.2.2,60.05057459392776,2023-11-12 14h00.07.069358 +0800,
1,condition_2/rightstar.PNG,right,,,,,,,,,,,,,0,18,18,4,423.93752040000004,,,,,,,,,,,,,,,,,,,,,,,,,,,,,,,,,,,,,,,,,,,,,,,,,,,,,,,,,,,,,,,,,,,,,,,,,,,,,,,,,,,,,,,,,,,,,,,,,,,,,,,,,423.88588760000016,423.93752040000004,424.40063180000016,424.4006706,424.89991410000016,425.3006683000001,425.1844166000001,425.1844592,426.5020125000001,426.5020125000001,427.3166940000001,428.25130839999997,right,1,1.733215599999994,None,004,001,2023-11-12_13h59.46.892,untitled,2023.2.2,60.05057459392776,2023-11-12 14h00.07.069358 +0800,
2,condition_2/blank.PNG,space,,,,,,,,,,,,,0,19,19,20,428.30689000000007,,,,,,,,,,,,,,,,,,,,,,,,,,,,,,,,,,,,,,,,,,,,,,,,,,,,,,,,,,,,,,,,,,,,,,,,,,,,,,,,,,,,,,,,,,,,,,,,,,,,,,,,,428.2527491000001,428.30689000000007,428.7673416,428.76738939999996,429.26686670000004,429.6844843000001,429.55089410000005,429.5509214000001,430.86784710000006,430.86784710000006,431.6666064000001,431.98488250000014,space,1,1.115679,None,004,001,2023-11-12_13h59.46.892,untitled,2023.2.2,60.05057459392776,2023-11-12 14h00.07.069358 +0800,
8,condition_2/blank.PNG,space,,,,,,,,,,,,,0,20,20,10,432.05469600000015,,,,,,,,,,,,,,,,,,,,,,,,,,,,,,,,,,,,,,,,,,,,,,,,,,,,,,,,,,,,,,,,,,,,,,,,,,,,,,,,,,,,,,,,,,,,,,,,,,,,,,,,,431.9859286000001,432.05469600000015,432.50075960000004,432.50080019999996,432.99997870000016,433.33191740000007,433.28446110000004,433.28449810000006,434.6011975000001,434.6011975000001,,435.2691473,space,1,0.6654180000000451,None,004,001,2023-11-12_13h59.46.892,untitled,2023.2.2,60.05057459392776,2023-11-12 14h00.07.069358 +0800,
8,condition_2/rightstar.PNG,space,,,,,,,,,,,,,0,21,21,6,435.3363727000001,,,,,,,,,,,,,,,,,,,,,,,,,,,,,,,,,,,,,,,,,,,,,,,,,,,,,,,,,,,,,,,,,,,,,,,,,,,,,,,,,,,,,,,,,,,,,,,,,,,,,,,,,435.2702885000001,435.3363727000001,435.78425400000015,435.78429570000003,436.28335719999995,436.8212346,436.5678534000001,436.5678815000001,437.88547500000004,437.88547500000004,438.70002339999996,440.18415200000004,space,1,2.2938062000000627,None,004,001,2023-11-12_13h59.46.892,untitled,2023.2.2,60.05057459392776,2023-11-12 14h00.07.069358 +0800,
2,condition_2/leftstar.PNG,left,,,,,,,,,,,,,0,22,22,22,440.2319778000001,,,,,,,,,,,,,,,,,,,,,,,,,,,,,,,,,,,,,,,,,,,,,,,,,,,,,,,,,,,,,,,,,,,,,,,,,,,,,,,,,,,,,,,,,,,,,,,,,,,,,,,,,440.18481410000004,440.2319778000001,440.7005882000001,440.70061699999997,441.20011680000016,441.6151897,441.484052,441.4841008000001,442.8018591,442.8018591,443.6165678,444.11865940000007,left,1,1.3011819000000742,None,004,001,2023-11-12_13h59.46.892,untitled,2023.2.2,60.05057459392776,2023-11-12 14h00.07.069358 +0800,
2,condition_2/rightstar.PNG,right,,,,,,,,,,,,,0,23,23,13,444.17710080000006,,,,,,,,,,,,,,,,,,,,,,,,,,,,,,,,,,,,,,,,,,,,,,,,,,,,,,,,,,,,,,,,,,,,,,,,,,,,,,,,,,,,,,,,,,,,,,,,,,,,,,,,,444.11985860000004,444.17710080000006,444.6338609000002,444.63388899999995,445.13344010000014,445.53353830000015,445.41739930000017,445.417426,446.73527460000014,446.73527460000014,447.54976120000015,448.2184462,right,1,1.4816310000001067,None,004,001,2023-11-12_13h59.46.892,untitled,2023.2.2,60.05057459392776,2023-11-12 14h00.07.069358 +0800,
1,condition_2/rightstar.PNG,right,,,,,,,,,,,,,0,24,24,21,448.28039190000004,,,,,,,,,,,,,,,,,,,,,,,,,,,,,,,,,,,,,,,,,,,,,,,,,,,,,,,,,,,,,,,,,,,,,,,,,,,,,,,,,,,,,,,,,,,,,,,,,,,,,,,,,448.2195133,448.28039190000004,448.7340064,448.7340543,449.2333421000001,449.63835070000005,449.51760680000007,449.5176348,450.8354819000001,450.8354819000001,451.65004650000014,452.0360191,right,1,1.196094500000072,None,004,001,2023-11-12_13h59.46.892,untitled,2023.2.2,60.05057459392776,2023-11-12 14h00.07.069358 +0800,
8,condition_2/rightstar.PNG,space,,,,,,,,,,,,,1,0,25,14,452.09160180000003,,,,,,,,,,,,,,,,,,,,,,,,,,,,,,,,,,,,,,,,,,,,,,,,,,,,,,,,,,,,,,,,,,,,,,,,,,,,,,,,,,,,,,,,,,,,,,,,,,,,,,,,,452.03712570000016,452.09160180000003,452.5509088000001,452.55094410000015,453.05003380000016,453.4495952,453.33412240000007,453.33414949999997,454.652008,454.652008,455.46666230000005,455.8015978000001,space,1,1.1417155000001458,None,004,001,2023-11-12_13h59.46.892,untitled,2023.2.2,60.05057459392776,2023-11-12 14h00.07.069358 +0800,
9,condition_2/leftstar.PNG,space,,,,,,,,,,,,,1,1,26,19,455.85575259999996,,,,,,,,,,,,,,,,,,,,,,,,,,,,,,,,,,,,,,,,,,,,,,,,,,,,,,,,,,,,,,,,,,,,,,,,,,,,,,,,,,,,,,,,,,,,,,,,,,,,,,,,,455.80280689999995,455.85575259999996,456.31787800000006,456.3179068000002,456.81644700000015,457.21660880000013,457.10083699999996,457.10085530000015,458.41901440000015,458.41901440000015,459.23323500000015,460.21842800000013,space,1,1.7839197000000695,None,004,001,2023-11-12_13h59.46.892,untitled,2023.2.2,60.05057459392776,2023-11-12 14h00.07.069358 +0800,
9,condition_2/rightstar.PNG,space,,,,,,,,,,,,,1,2,27,15,460.2701981,,,,,,,,,,,,,,,,,,,,,,,,,,,,,,,,,,,,,,,,,,,,,,,,,,,,,,,,,,,,,,,,,,,,,,,,,,,,,,,,,,,,,,,,,,,,,,,,,,,,,,,,,460.22028750000004,460.2701981,460.73394370000005,460.7339713000001,461.2331851000001,461.6466236000001,461.5178873,461.51791679999997,462.8354435000001,462.8354435000001,463.6502161000001,465.0517625,space,1,2.208125000000109,None,004,001,2023-11-12_13h59.46.892,untitled,2023.2.2,60.05057459392776,2023-11-12 14h00.07.069358 +0800,
2,condition_2/leftstar.PNG,left,,,,,,,,,,,,,1,3,28,22,465.10904500000015,,,,,,,,,,,,,,,,,,,,,,,,,,,,,,,,,,,,,,,,,,,,,,,,,,,,,,,,,,,,,,,,,,,,,,,,,,,,,,,,,,,,,,,,,,,,,,,,,,,,,,,,,465.05285419999996,465.10904500000015,465.5675337,465.56756889999997,466.06682620000015,466.56657240000004,466.3511353000001,466.35116600000015,467.6685956000001,467.6685956000001,468.4833201000001,469.4013952,left,1,1.723559699999896,None,004,001,2023-11-12_13h59.46.892,untitled,2023.2.2,60.05057459392776,2023-11-12 14h00.07.069358 +0800,
1,condition_2/leftstar.PNG,left,,,,,,,,,,,,,1,4,29,16,469.4505236,,,,,,,,,,,,,,,,,,,,,,,,,,,,,,,,,,,,,,,,,,,,,,,,,,,,,,,,,,,,,,,,,,,,,,,,,,,,,,,,,,,,,,,,,,,,,,,,,,,,,,,,,469.4024829,469.4505236,469.91759950000005,469.9176271000001,470.41660330000013,470.81716789999996,470.7013532000001,470.70139130000007,472.0188476000001,472.0188476000001,472.83358410000005,473.7181472,left,1,1.6891330000000835,None,004,001,2023-11-12_13h59.46.892,untitled,2023.2.2,60.05057459392776,2023-11-12 14h00.07.069358 +0800,
9,condition_2/leftstar.PNG,space,,,,,,,,,,,,,1,5,30,3,473.77405380000005,,,,,,,,,,,,,,,,,,,,,,,,,,,,,,,,,,,,,,,,,,,,,,,,,,,,,,,,,,,,,,,,,,,,,,,,,,,,,,,,,,,,,,,,,,,,,,,,,,,,,,,,,473.71957510000016,473.77405380000005,474.23378720000005,474.23381259999996,474.7333616000001,475.2633046000001,475.0176503,475.01767830000017,476.33537450000017,476.33537450000017,477.1497941,477.5681975,space,1,1.2257383999999547,None,004,001,2023-11-12_13h59.46.892,untitled,2023.2.2,60.05057459392776,2023-11-12 14h00.07.069358 +0800,
8,condition_2/rightstar.PNG,space,,,,,,,,,,,,,1,6,31,23,477.62196730000005,,,,,,,,,,,,,,,,,,,,,,,,,,,,,,,,,,,,,,,,,,,,,,,,,,,,,,,,,,,,,,,,,,,,,,,,,,,,,,,,,,,,,,,,,,,,,,,,,,,,,,,,,477.56925550000005,477.62196730000005,478.0840829000001,478.0841239000001,478.5833288000001,478.982988,478.86764570000014,478.8676716,480.1852960000001,480.1852960000001,480.99994830000014,482.1853773,space,1,1.996107400000028,None,004,001,2023-11-12_13h59.46.892,untitled,2023.2.2,60.05057459392776,2023-11-12 14h00.07.069358 +0800,
1,condition_2/blank.PNG,space,,,,,,,,,,,,,1,7,32,8,482.2419284,,,,,,,,,,,,,,,,,,,,,,,,,,,,,,,,,,,,,,,,,,,,,,,,,,,,,,,,,,,,,,,,,,,,,,,,,,,,,,,,,,,,,,,,,,,,,,,,,,,,,,,,,482.18667159999995,482.2419284,482.7008787,482.7009048,483.20005990000004,483.60264570000004,483.48449370000003,483.48451939999995,484.80115620000015,484.80115620000015,485.5998718000001,485.98481360000005,space,1,1.168712499999856,None,004,001,2023-11-12_13h59.46.892,untitled,2023.2.2,60.05057459392776,2023-11-12 14h00.07.069358 +0800,
1,condition_2/rightstar.PNG,right,,,,,,,,,,,,,1,8,33,21,486.06289300000003,,,,,,,,,,,,,,,,,,,,,,,,,,,,,,,,,,,,,,,,,,,,,,,,,,,,,,,,,,,,,,,,,,,,,,,,,,,,,,,,,,,,,,,,,,,,,,,,,,,,,,,,,485.9858606,486.06289300000003,486.50070030000006,486.5007445000001,486.9999511000001,487.5006419000001,487.28392410000015,487.2839398000001,488.60193660000004,488.60193660000004,489.41673519999995,490.05182260000015,right,1,1.4465453000000252,None,004,001,2023-11-12_13h59.46.892,untitled,2023.2.2,60.05057459392776,2023-11-12 14h00.07.069358 +0800,
1,condition_2/leftstar.PNG,left,,,,,,,,,,,,,1,9,34,0,490.1031852000001,,,,,,,,,,,,,,,,,,,,,,,,,,,,,,,,,,,,,,,,,,,,,,,,,,,,,,,,,,,,,,,,,,,,,,,,,,,,,,,,,,,,,,,,,,,,,,,,,,,,,,,,,490.05288240000004,490.1031852000001,490.56709049999995,490.56712140000013,491.0667446,491.5040931000001,491.3508081,491.3508369000001,492.66881980000016,492.66881980000016,,493.3685872000001,left,1,0.6963679999998931,None,004,001,2023-11-12_13h59.46.892,untitled,2023.2.2,60.05057459392776,2023-11-12 14h00.07.069358 +0800,
9,condition_2/leftstar.PNG,space,,,,,,,,,,,,,1,10,35,24,493.42013020000013,,,,,,,,,,,,,,,,,,,,,,,,,,,,,,,,,,,,,,,,,,,,,,,,,,,,,,,,,,,,,,,,,,,,,,,,,,,,,,,,,,,,,,,,,,,,,,,,,,,,,,,,,493.36933870000007,493.42013020000013,493.88419339999996,493.88422060000016,494.38330859999996,494.79859290000013,494.6674203,494.66744790000007,495.98525459999996,495.98525459999996,496.8000164,497.3847488000001,space,1,1.3974628000000848,None,004,001,2023-11-12_13h59.46.892,untitled,2023.2.2,60.05057459392776,2023-11-12 14h00.07.069358 +0800,
2,condition_2/rightstar.PNG,right,,,,,,,,,,,,,1,11,36,13,497.4355378,,,,,,,,,,,,,,,,,,,,,,,,,,,,,,,,,,,,,,,,,,,,,,,,,,,,,,,,,,,,,,,,,,,,,,,,,,,,,,,,,,,,,,,,,,,,,,,,,,,,,,,,,497.3858454000001,497.4355378,497.9008285,497.9008569,498.39996640000004,498.8032406,498.684127,498.6841548,500.00202579999996,500.00202579999996,500.8164034000001,501.4679082,right,1,1.4598350999999639,None,004,001,2023-11-12_13h59.46.892,untitled,2023.2.2,60.05057459392776,2023-11-12 14h00.07.069358 +0800,
2,condition_2/blank.PNG,space,,,,,,,,,,,,,1,12,37,9,501.52033440000014,,,,,,,,,,,,,,,,,,,,,,,,,,,,,,,,,,,,,,,,,,,,,,,,,,,,,,,,,,,,,,,,,,,,,,,,,,,,,,,,,,,,,,,,,,,,,,,,,,,,,,,,,501.4689826000001,501.52033440000014,501.9840758,501.98410390000004,502.48341189999996,502.8624611,502.7677979,502.7678324000001,504.08467199999996,504.08467199999996,504.88338910000016,505.0022655,space,1,0.9123376000000007,None,004,001,2023-11-12_13h59.46.892,untitled,2023.2.2,60.05057459392776,2023-11-12 14h00.07.069358 +0800,
2,condition_2/blank.PNG,space,,,,,,,,,,,,,1,13,38,20,505.0571178,,,,,,,,,,,,,,,,,,,,,,,,,,,,,,,,,,,,,,,,,,,,,,,,,,,,,,,,,,,,,,,,,,,,,,,,,,,,,,,,,,,,,,,,,,,,,,,,,,,,,,,,,505.003428,505.0571178,505.51735499999995,505.5173978,506.0164711,506.33793990000004,506.30120239999997,506.30122960000017,507.61787819999995,507.61787819999995,508.416612,509.06830450000007,space,1,1.4467359999998735,None,004,001,2023-11-12_13h59.46.892,untitled,2023.2.2,60.05057459392776,2023-11-12 14h00.07.069358 +0800,
2,condition_2/leftstar.PNG,left,,,,,,,,,,,,,1,14,39,17,509.1289472000001,,,,,,,,,,,,,,,,,,,,,,,,,,,,,,,,,,,,,,,,,,,,,,,,,,,,,,,,,,,,,,,,,,,,,,,,,,,,,,,,,,,,,,,,,,,,,,,,,,,,,,,,,509.0695339000001,509.1289472000001,509.58404429999996,509.58407020000004,510.08326710000006,510.61803800000007,510.36743760000013,510.3674836,511.6852309000001,511.6852309000001,512.5001429000001,513.1347720000001,left,1,1.4429949000000306,None,004,001,2023-11-12_13h59.46.892,untitled,2023.2.2,60.05057459392776,2023-11-12 14h00.07.069358 +0800,
8,condition_2/rightstar.PNG,space,,,,,,,,,,,,,1,15,40,6,513.1919338,,,,,,,,,,,,,,,,,,,,,,,,,,,,,,,,,,,,,,,,,,,,,,,,,,,,,,,,,,,,,,,,,,,,,,,,,,,,,,,,,,,,,,,,,,,,,,,,,,,,,,,,,513.1358202000001,513.1919338,513.6506438000001,513.650672,514.150175,514.5663198,514.4343315000001,514.4343583,515.7520432000001,515.7520432000001,516.5664455000001,516.8347519000001,space,1,1.0697559000000183,None,004,001,2023-11-12_13h59.46.892,untitled,2023.2.2,60.05057459392776,2023-11-12 14h00.07.069358 +0800,
1,condition_2/rightstar.PNG,right,,,,,,,,,,,,,1,16,41,4,516.8921132,,,,,,,,,,,,,,,,,,,,,,,,,,,,,,,,,,,,,,,,,,,,,,,,,,,,,,,,,,,,,,,,,,,,,,,,,,,,,,,,,,,,,,,,,,,,,,,,,,,,,,,,,516.8358351000002,516.8921132,517.3504269,517.3504544,517.8498881,518.2572097,518.1342814,518.1343083000002,519.4520930000001,519.4520930000001,520.2667937000001,520.9018643000002,right,1,1.4350396999998338,None,004,001,2023-11-12_13h59.46.892,untitled,2023.2.2,60.05057459392776,2023-11-12 14h00.07.069358 +0800,
2,condition_2/rightstar.PNG,left,,,,,,,,,,,,,1,17,42,5,520.9590304000001,,,,,,,,,,,,,,,,,,,,,,,,,,,,,,,,,,,,,,,,,,,,,,,,,,,,,,,,,,,,,,,,,,,,,,,,,,,,,,,,,,,,,,,,,,,,,,,,,,,,,,,,,520.9030029,520.9590304000001,521.4172817000001,521.4173073000002,521.9165420000002,522.3189895,522.200775,522.2008019,523.5186338000001,523.5186338000001,524.3333250000001,525.1021059,right,0,1.5777780999999322,None,004,001,2023-11-12_13h59.46.892,untitled,2023.2.2,60.05057459392776,2023-11-12 14h00.07.069358 +0800,
8,condition_2/blank.PNG,space,,,,,,,,,,,,,1,18,43,10,525.1510242000002,,,,,,,,,,,,,,,,,,,,,,,,,,,,,,,,,,,,,,,,,,,,,,,,,,,,,,,,,,,,,,,,,,,,,,,,,,,,,,,,,,,,,,,,,,,,,,,,,,,,,,,,,525.1030652000002,525.1510242000002,525.6174290000001,525.6174551000001,526.1165780000001,526.5294208,526.4008196,526.4008471,527.7177623,527.7177623,528.5164691,528.9514701,space,1,1.2320130000000518,None,004,001,2023-11-12_13h59.46.892,untitled,2023.2.2,60.05057459392776,2023-11-12 14h00.07.069358 +0800,
8,condition_2/leftstar.PNG,space,,,,,,,,,,,,,1,19,44,18,529.0029135,,,,,,,,,,,,,,,,,,,,,,,,,,,,,,,,,,,,,,,,,,,,,,,,,,,,,,,,,,,,,,,,,,,,,,,,,,,,,,,,,,,,,,,,,,,,,,,,,,,,,,,,,528.9526022,529.0029135,529.4672118000001,529.4672466,529.9665546000001,530.5251134,530.2502301,530.2502427000002,531.5688436,531.5688436,532.3831835000001,533.0013002000001,space,1,1.4310534999999618,None,004,001,2023-11-12_13h59.46.892,untitled,2023.2.2,60.05057459392776,2023-11-12 14h00.07.069358 +0800,
1,condition_2/rightstar.PNG,right,,,,,,,,,,,,,1,20,45,12,533.05405,,,,,,,,,,,,,,,,,,,,,,,,,,,,,,,,,,,,,,,,,,,,,,,,,,,,,,,,,,,,,,,,,,,,,,,,,,,,,,,,,,,,,,,,,,,,,,,,,,,,,,,,,533.0023457,533.05405,533.5172689000001,533.5173067000001,534.0164488,534.4342444000001,534.3007629000001,534.3007888,535.6184633,535.6184633,536.4330853000001,537.2843264,right,1,1.6522041000000627,None,004,001,2023-11-12_13h59.46.892,untitled,2023.2.2,60.05057459392776,2023-11-12 14h00.07.069358 +0800,
2,condition_2/leftstar.PNG,left,,,,,,,,,,,,,1,21,46,1,537.3748662,,,,,,,,,,,,,,,,,,,,,,,,,,,,,,,,,,,,,,,,,,,,,,,,,,,,,,,,,,,,,,,,,,,,,,,,,,,,,,,,,,,,,,,,,,,,,,,,,,,,,,,,,537.2848803000002,537.3748662,537.8005378,537.800569,538.2997553,538.7347868000002,538.5843023,538.5843199000001,539.902413,539.902413,540.7166642,541.0846513000001,left,1,1.1799833000000035,None,004,001,2023-11-12_13h59.46.892,untitled,2023.2.2,60.05057459392776,2023-11-12 14h00.07.069358 +0800,
9,condition_2/rightstar.PNG,space,,,,,,,,,,,,,1,22,47,7,541.1658634,,,,,,,,,,,,,,,,,,,,,,,,,,,,,,,,,,,,,,,,,,,,,,,,,,,,,,,,,,,,,,,,,,,,,,,,,,,,,,,,,,,,,,,,,,,,,,,,,,,,,,,,,541.0856602000001,541.1658634,541.6008133,541.6008504000001,542.1000724,542.5118351000001,542.3841974,542.3842245000001,543.7022470000002,543.7022470000002,544.5165722000002,544.9515917000001,space,1,1.2376800000001822,None,004,001,2023-11-12_13h59.46.892,untitled,2023.2.2,60.05057459392776,2023-11-12 14h00.07.069358 +0800,
9,condition_2/blank.PNG,space,,,,,,,,,,,,,1,23,48,11,545.0046666000001,,,,,,,,,,,,,,,,,,,,,,,,,,,,,,,,,,,,,,,,,,,,,,,,,,,,,,,,,,,,,,,,,,,,,,,,,,,,,,,,,,,,,,,,,,,,,,,,,,,,,,,,,544.9526701,545.0046666000001,545.4677429000001,545.4677713000001,545.9666159000001,546.3911811,546.2510759000002,546.2511026,547.5677822,547.5677822,548.3664839,549.0847503,space,1,1.5060527000000548,None,004,001,2023-11-12_13h59.46.892,untitled,2023.2.2,60.05057459392776,2023-11-12 14h00.07.069358 +0800,
8,condition_2/leftstar.PNG,space,,,,,,,,,,,,,1,24,49,2,549.1386454000001,,,,,,,,,,,,,,,,,,,,,,,,,,,,,,,,,,,,,,,,,,,,,,,,,,,,,,,,,,,,,,,,,,,,,,,,,,,,,,,,,,,,,,,,,,,,,,,,,,,,,,,,,549.0858254,549.1386454000001,549.6006367,549.6006631,550.0997887000001,550.6415468,550.3842543000001,550.3842811,551.7020599,551.7020599,552.5164121,553.2849192000001,space,1,1.5785326000000168,None,004,001,2023-11-12_13h59.46.892,untitled,2023.2.2,60.05057459392776,2023-11-12 14h00.07.069358 +0800,
