stimuli,star,CorrectAns,trials_3.thisRepN,trials_3.thisTrialN,trials_3.thisN,trials_3.thisIndex,trials.thisRepN,trials.thisTrialN,trials.thisN,trials.thisIndex,trials_4.thisRepN,trials_4.thisTrialN,trials_4.thisN,trials_4.thisIndex,trials_2.thisRepN,trials_2.thisTrialN,trials_2.thisN,trials_2.thisIndex,thisRow.t,notes,routine_21.started,text_9.started,key_resp_8.started,routine_21.stopped,key_resp_8.keys,key_resp_8.rt,key_resp_8.duration,introduction.started,text_6.started,key_resp_5.started,introduction.stopped,key_resp_5.keys,key_resp_5.rt,key_resp_5.duration,routine_14.started,image_6.started,routine_14.stopped,routine_16.started,text_4.started,text_4.stopped,routine_16.stopped,routine_17.started,image_7.started,key_resp_3.started,image_7.stopped,routine_17.stopped,key_resp_3.keys,key_resp_3.rt,key_resp_3.duration,routine_20.started,text_8.started,key_resp_7.started,routine_20.stopped,key_resp_7.keys,key_resp_7.rt,key_resp_7.duration,routine_18.started,text_5.started,key_resp_4.started,routine_18.stopped,key_resp_4.keys,key_resp_4.rt,key_resp_4.duration,trial.started,image_3.started,trial.stopped,routine.started,text_3.started,text_3.stopped,routine.stopped,routine_1.started,image_2.started,key_resp.started,routine_1.stopped,key_resp.keys,key_resp.corr,key_resp.rt,key_resp.duration,image_2.stopped,routine_22.started,text_10.started,key_resp_9.started,routine_22.stopped,key_resp_9.keys,key_resp_9.rt,key_resp_9.duration,routine_19.started,text_7.started,key_resp_6.started,routine_19.stopped,key_resp_6.keys,key_resp_6.rt,key_resp_6.duration,routine_23.started,image_8.started,routine_23.stopped,routine_24.started,text_11.started,text_11.stopped,routine_24.stopped,routine_25.started,image_9.started,key_resp_10.started,image_9.stopped,routine_25.stopped,key_resp_10.keys,key_resp_10.rt,key_resp_10.duration,routine_26.started,text_12.started,key_resp_11.started,text_12.stopped,routine_26.stopped,key_resp_11.keys,key_resp_11.rt,key_resp_11.duration,routine_27.started,text_13.started,key_resp_12.started,text_13.stopped,routine_27.stopped,key_resp_12.keys,key_resp_12.rt,key_resp_12.duration,routine_10.started,image_4.started,routine_10.stopped,routine_11.started,text.started,text.stopped,routine_11.stopped,routine_12.started,image_5.started,key_resp_2.started,routine_12.stopped,key_resp_2.keys,key_resp_2.corr,key_resp_2.rt,key_resp_2.duration,image_5.stopped,participant,session,date,expName,psychopyVersion,frameRate,expStart,
,,,,,,,,,,,,,,,,,,,,,0.0032463000000007014,0.0066658999999162916,0.0066658999999162916,8.183639800000037,space,8.168738699999949,None,,,,,,,,,,,,,,,,,,,,,,,,,,,,,,,,,,,,,,,,,,,,,,,,,,,,,,,,,,,,,,,,,,,,,,,,,,,,,,,,,,,,,,,,,,,,,,,,,,,,,,,,,,,,,,,,,,007,001,2023-11-12_14h10.18.277,untitled,2023.2.2,59.940754558161665,2023-11-12 14h10.28.769543 +0800,
,,,,,,,,,,,,,,,,,,,,,,,,,,,,8.183826299999964,8.198724399999946,8.198724399999946,42.53361199999995,space,34.323630700000194,None,,,,,,,,,,,,,,,,,,,,,,,,,,,,,,,,,,,,,,,,,,,,,,,,,,,,,,,,,,,,,,,,,,,,,,,,,,,,,,,,,,,,,,,,,,,,,,,,,,,,,,,,,,,007,001,2023-11-12_14h10.18.277,untitled,2023.2.2,59.940754558161665,2023-11-12 14h10.28.769543 +0800,
1,test/leftstar.PNG,space,0,0,0,0,,,,,,,,,,,,,42.68203470000003,,,,,,,,,,,,,,,,42.54299610000021,42.68203470000003,43.04963299999986,43.04966730000001,43.54864960000009,44.084320199999866,43.83311759999992,43.83314630000018,45.152878799999826,45.152878799999826,45.965440400000034,47.167649199999914,space,2.0124722000000475,None,,,,,,,,,,,,,,,,,,,,,,,,,,,,,,,,,,,,,,,,,,,,,,,,,,,,,,,,,,,,,,,,,,,,,,,,,,,,,,,,,,,,,,,,,,,,007,001,2023-11-12_14h10.18.277,untitled,2023.2.2,59.940754558161665,2023-11-12 14h10.28.769543 +0800,
2,test/leftstar.PNG,space,0,1,1,4,,,,,,,,,,,,,47.23630399999979,,,,,,,,,,,,,,,,47.16902349999987,47.23630399999979,47.68280440000012,47.682833399999936,48.181815099999994,48.5987262000001,48.46631760000014,48.46634049999989,49.784186699999964,49.784186699999964,50.59882020000009,50.800336000000016,space,1.004362300000139,None,,,,,,,,,,,,,,,,,,,,,,,,,,,,,,,,,,,,,,,,,,,,,,,,,,,,,,,,,,,,,,,,,,,,,,,,,,,,,,,,,,,,,,,,,,,,007,001,2023-11-12_14h10.18.277,untitled,2023.2.2,59.940754558161665,2023-11-12 14h10.28.769543 +0800,
9,test/rightstar.PNG,right,0,2,2,3,,,,,,,,,,,,,50.85632559999999,,,,,,,,,,,,,,,,50.80122719999986,50.85632559999999,51.316787200000135,51.31681279999998,51.81527979999987,52.231805199999826,52.09968270000013,52.09970640000006,53.41766089999987,53.41766089999987,54.23194690000014,54.75099119999982,right,1.3317900000001828,None,,,,,,,,,,,,,,,,,,,,,,,,,,,,,,,,,,,,,,,,,,,,,,,,,,,,,,,,,,,,,,,,,,,,,,,,,,,,,,,,,,,,,,,,,,,,007,001,2023-11-12_14h10.18.277,untitled,2023.2.2,59.940754558161665,2023-11-12 14h10.28.769543 +0800,
1,test/blank.PNG,space,0,3,3,2,,,,,,,,,,,,,54.80607979999991,,,,,,,,,,,,,,,,54.75191770000015,54.80607979999991,55.26613079999993,55.266153299999814,55.76570620000007,56.187636599999905,56.04978129999995,56.049809700000196,57.366714699999875,57.366714699999875,58.16543059999981,58.90034069999979,space,1.5220193999998628,None,,,,,,,,,,,,,,,,,,,,,,,,,,,,,,,,,,,,,,,,,,,,,,,,,,,,,,,,,,,,,,,,,,,,,,,,,,,,,,,,,,,,,,,,,,,,007,001,2023-11-12_14h10.18.277,untitled,2023.2.2,59.940754558161665,2023-11-12 14h10.28.769543 +0800,
8,test/rightstar.PNG,right,0,4,4,1,,,,,,,,,,,,,58.95552449999991,,,,,,,,,,,,,,,,58.901263699999845,58.95552449999991,59.416469200000165,59.41649050000001,59.915306699999974,60.432056599999896,60.1999916000002,60.200016300000016,61.51764590000016,61.51764590000016,,61.834230199999865,space,0.3053240999997797,None,,,,,,,,,,,,,,,,,,,,,,,,,,,,,,,,,,,,,,,,,,,,,,,,,,,,,,,,,,,,,,,,,,,,,,,,,,,,,,,,,,,,,,,,,,,,007,001,2023-11-12_14h10.18.277,untitled,2023.2.2,59.940754558161665,2023-11-12 14h10.28.769543 +0800,
8,test/leftstar.PNG,left,0,5,5,5,,,,,,,,,,,,,61.897357800000236,,,,,,,,,,,,,,,,61.83517619999998,61.897357800000236,62.349728599999935,62.34975860000009,62.84874109999987,63.2770637000001,63.133419900000035,63.13344329999995,64.45092880000016,64.45092880000016,65.26546639999992,65.63413220000007,left,1.1729285000001255,None,,,,,,,,,,,,,,,,,,,,,,,,,,,,,,,,,,,,,,,,,,,,,,,,,,,,,,,,,,,,,,,,,,,,,,,,,,,,,,,,,,,,,,,,,,,,007,001,2023-11-12_14h10.18.277,untitled,2023.2.2,59.940754558161665,2023-11-12 14h10.28.769543 +0800,
,,,,,,,,,,,,,,,,,,,,,,,,,,,,,,,,,,,,,,,,,,,,,,,,,,65.63497329999996,65.6485994000002,65.6485994000002,69.81686220000006,space,4.165188299999954,None,,,,,,,,,,,,,,,,,,,,,,,,,,,,,,,,,,,,,,,,,,,,,,,,,,,,,,,,,,,,,,,,,,,,,,,,,,,,,,,,,,,,,007,001,2023-11-12_14h10.18.277,untitled,2023.2.2,59.940754558161665,2023-11-12 14h10.28.769543 +0800,
,,,,,,,,,,,,,,,,,,,,,,,,,,,,,,,,,,,,,,,,,,,,,,,,,,,,,,,,,69.81689829999982,69.83198629999993,69.83198629999993,75.66710979999993,space,5.8242089999998825,None,,,,,,,,,,,,,,,,,,,,,,,,,,,,,,,,,,,,,,,,,,,,,,,,,,,,,,,,,,,,,,,,,,,,,,,,,,,,,,007,001,2023-11-12_14h10.18.277,untitled,2023.2.2,59.940754558161665,2023-11-12 14h10.28.769543 +0800,
8,condition_1/blank.PNG,space,,,,,0,0,0,10,,,,,,,,,75.75524229999996,,,,,,,,,,,,,,,,,,,,,,,,,,,,,,,,,,,,,,,,,,,,,75.68539510000005,75.75524229999996,76.18287369999985,76.18289840000011,76.68213690000016,77.05544669999995,76.9678679000001,76.96789160000003,78.28419580000013,78.28419580000013,78.95049480000011,space,1,0.6494533000000047,None,,,,,,,,,,,,,,,,,,,,,,,,,,,,,,,,,,,,,,,,,,,,,,,,,,,,,,,,,,,,,,,007,001,2023-11-12_14h10.18.277,untitled,2023.2.2,59.940754558161665,2023-11-12 14h10.28.769543 +0800,
9,condition_1/rightstar.PNG,right,,,,,0,1,1,15,,,,,,,,,79.07655689999979,,,,,,,,,,,,,,,,,,,,,,,,,,,,,,,,,,,,,,,,,,,,,78.95201659999998,79.07655689999979,79.4664878000001,79.4665123000002,79.96529889999988,80.52447259999985,80.2497805999999,80.24979159999998,81.56743949999986,81.56743949999986,82.63376080000012,right,1,1.057047799999964,None,82.38214510000012,,,,,,,,,,,,,,,,,,,,,,,,,,,,,,,,,,,,,,,,,,,,,,,,,,,,,,,,,,,,,,007,001,2023-11-12_14h10.18.277,untitled,2023.2.2,59.940754558161665,2023-11-12 14h10.28.769543 +0800,
8,condition_1/rightstar.PNG,right,,,,,0,2,2,14,,,,,,,,,82.69232880000004,,,,,,,,,,,,,,,,,,,,,,,,,,,,,,,,,,,,,,,,,,,,,82.6348900999999,82.69232880000004,83.14968030000023,83.14972049999983,83.64881089999994,84.06190219999985,83.93377190000024,83.9338021000001,85.25092659999996,85.25092659999996,86.08409649999999,right,1,0.8159858000003624,None,86.06562229999986,,,,,,,,,,,,,,,,,,,,,,,,,,,,,,,,,,,,,,,,,,,,,,,,,,,,,,,,,,,,,,007,001,2023-11-12_14h10.18.277,untitled,2023.2.2,59.940754558161665,2023-11-12 14h10.28.769543 +0800,
9,condition_1/blank.PNG,space,,,,,0,3,3,11,,,,,,,,,86.14526330000012,,,,,,,,,,,,,,,,,,,,,,,,,,,,,,,,,,,,,,,,,,,,,86.08513719999996,86.14526330000012,86.59968300000014,86.59973090000017,87.09880739999994,87.48090810000008,87.38326429999984,87.38329559999988,88.69991039999991,88.69991039999991,89.50035090000006,space,1,0.7839579999999842,None,89.4988734000001,,,,,,,,,,,,,,,,,,,,,,,,,,,,,,,,,,,,,,,,,,,,,,,,,,,,,,,,,,,,,,007,001,2023-11-12_14h10.18.277,untitled,2023.2.2,59.940754558161665,2023-11-12 14h10.28.769543 +0800,
2,condition_1/leftstar.PNG,space,,,,,0,4,4,17,,,,,,,,,89.56331419999992,,,,,,,,,,,,,,,,,,,,,,,,,,,,,,,,,,,,,,,,,,,,,89.50142260000007,89.56331419999992,90.01617640000018,90.0161986999999,90.51554640000018,91.0503153000002,90.79916029999981,90.7991728999998,92.1173108999999,92.1173108999999,93.30069070000013,space,1,1.1813677000000098,None,92.93213760000003,,,,,,,,,,,,,,,,,,,,,,,,,,,,,,,,,,,,,,,,,,,,,,,,,,,,,,,,,,,,,,007,001,2023-11-12_14h10.18.277,untitled,2023.2.2,59.940754558161665,2023-11-12 14h10.28.769543 +0800,
9,condition_1/leftstar.PNG,left,,,,,0,5,5,20,,,,,,,,,93.36019120000014,,,,,,,,,,,,,,,,,,,,,,,,,,,,,,,,,,,,,,,,,,,,,93.30251900000007,93.36019120000014,93.81614439999998,93.81617949999986,94.31568240000001,94.72263069999985,94.59960179999985,94.5996263999998,95.91745770000011,95.91745770000011,96.71793830000001,left,1,0.7927209000004041,None,96.77584890000003,,,,,,,,,,,,,,,,,,,,,,,,,,,,,,,,,,,,,,,,,,,,,,,,,,,,,,,,,,,,,,007,001,2023-11-12_14h10.18.277,untitled,2023.2.2,59.940754558161665,2023-11-12 14h10.28.769543 +0800,
9,condition_1/leftstar.PNG,left,,,,,0,6,6,3,,,,,,,,,96.77584890000003,,,,,,,,,,,,,,,,,,,,,,,,,,,,,,,,,,,,,,,,,,,,,96.71910039999989,96.77584890000003,97.23265389999983,97.23267659999988,97.7319817,98.14108659999988,98.01642109999989,98.01644529999999,99.33432130000006,99.33432130000006,100.25015210000015,left,1,0.9038065999998253,None,100.14862740000012,,,,,,,,,,,,,,,,,,,,,,,,,,,,,,,,,,,,,,,,,,,,,,,,,,,,,,,,,,,,,,007,001,2023-11-12_14h10.18.277,untitled,2023.2.2,59.940754558161665,2023-11-12 14h10.28.769543 +0800,
2,condition_1/rightstar.PNG,space,,,,,0,7,7,5,,,,,,,,,100.30446069999994,,,,,,,,,,,,,,,,,,,,,,,,,,,,,,,,,,,,,,,,,,,,,100.25126389999991,100.30446069999994,100.76600930000018,100.76603259999979,101.26540349999982,101.70367190000002,101.54941269999995,101.54943579999986,102.86794179999993,102.86794179999993,103.9670478999999,space,1,1.0976657000001069,None,103.68220409999981,,,,,,,,,,,,,,,,,,,,,,,,,,,,,,,,,,,,,,,,,,,,,,,,,,,,,,,,,,,,,,007,001,2023-11-12_14h10.18.277,untitled,2023.2.2,59.940754558161665,2023-11-12 14h10.28.769543 +0800,
9,condition_1/leftstar.PNG,left,,,,,0,8,8,19,,,,,,,,,104.02342969999995,,,,,,,,,,,,,,,,,,,,,,,,,,,,,,,,,,,,,,,,,,,,,103.96817119999992,104.02342969999995,104.48277789999997,104.4828015999999,104.98205960000018,105.44397730000014,105.26640119999979,105.26642680000009,106.58436030000007,106.58436030000007,107.3176732999998,left,1,0.7263767999997981,None,,,,,,,,,,,,,,,,,,,,,,,,,,,,,,,,,,,,,,,,,,,,,,,,,,,,,,,,,,,,,,,007,001,2023-11-12_14h10.18.277,untitled,2023.2.2,59.940754558161665,2023-11-12 14h10.28.769543 +0800,
1,condition_1/rightstar.PNG,space,,,,,0,9,9,4,,,,,,,,,107.4020807999998,,,,,,,,,,,,,,,,,,,,,,,,,,,,,,,,,,,,,,,,,,,,,107.3187276000001,107.4020807999998,107.83287240000004,107.83289709999985,108.33259049999992,108.74138010000001,108.61661320000007,108.61664559999986,109.93454059999999,109.93454059999999,110.56871149999984,space,1,0.6314648000002308,None,,,,,,,,,,,,,,,,,,,,,,,,,,,,,,,,,,,,,,,,,,,,,,,,,,,,,,,,,,,,,,,007,001,2023-11-12_14h10.18.277,untitled,2023.2.2,59.940754558161665,2023-11-12 14h10.28.769543 +0800,
9,condition_1/rightstar.PNG,right,,,,,0,10,10,7,,,,,,,,,110.62245460000008,,,,,,,,,,,,,,,,,,,,,,,,,,,,,,,,,,,,,,,,,,,,,110.5698490000002,110.62245460000008,111.08304440000006,111.08308610000017,111.5821527999999,111.99617899999998,111.86638580000022,111.86641750000013,113.18410120000021,113.18410120000021,113.95086800000013,right,1,0.7558289999997214,None,,,,,,,,,,,,,,,,,,,,,,,,,,,,,,,,,,,,,,,,,,,,,,,,,,,,,,,,,,,,,,,007,001,2023-11-12_14h10.18.277,untitled,2023.2.2,59.940754558161665,2023-11-12 14h10.28.769543 +0800,
8,condition_1/rightstar.PNG,right,,,,,0,11,11,23,,,,,,,,,114.01063869999984,,,,,,,,,,,,,,,,,,,,,,,,,,,,,,,,,,,,,,,,,,,,,113.95192509999993,114.01063869999984,114.46590989999982,114.46593050000024,114.96533900000009,115.37330170000018,115.24963270000012,115.2496580999998,116.56764880000014,116.56764880000014,117.30078489999983,right,1,0.7170485999999983,None,,,,,,,,,,,,,,,,,,,,,,,,,,,,,,,,,,,,,,,,,,,,,,,,,,,,,,,,,,,,,,,007,001,2023-11-12_14h10.18.277,untitled,2023.2.2,59.940754558161665,2023-11-12 14h10.28.769543 +0800,
1,condition_1/leftstar.PNG,space,,,,,0,12,12,0,,,,,,,,,117.35602959999983,,,,,,,,,,,,,,,,,,,,,,,,,,,,,,,,,,,,,,,,,,,,,117.30181719999996,117.35602959999983,117.81597299999999,117.8160148999998,118.31546599999979,118.72448999999983,118.60017140000014,118.60022129999993,119.91737390000003,119.91737390000003,120.26725779999992,space,1,0.33547290000024077,None,,,,,,,,,,,,,,,,,,,,,,,,,,,,,,,,,,,,,,,,,,,,,,,,,,,,,,,,,,,,,,,007,001,2023-11-12_14h10.18.277,untitled,2023.2.2,59.940754558161665,2023-11-12 14h10.28.769543 +0800,
2,condition_1/rightstar.PNG,space,,,,,0,13,13,13,,,,,,,,,120.32248300000015,,,,,,,,,,,,,,,,,,,,,,,,,,,,,,,,,,,,,,,,,,,,,120.26830949999999,120.32248300000015,120.78273980000017,120.78276380000011,121.2818251000001,121.68201299999987,121.5663876000001,121.56641109999987,122.8841033000001,122.8841033000001,123.05150320000007,space,1,0.15642509999997856,None,,,,,,,,,,,,,,,,,,,,,,,,,,,,,,,,,,,,,,,,,,,,,,,,,,,,,,,,,,,,,,,007,001,2023-11-12_14h10.18.277,untitled,2023.2.2,59.940754558161665,2023-11-12 14h10.28.769543 +0800,
8,condition_1/leftstar.PNG,left,,,,,0,14,14,2,,,,,,,,,123.1092412999999,,,,,,,,,,,,,,,,,,,,,,,,,,,,,,,,,,,,,,,,,,,,,123.05304219999994,123.1092412999999,123.56677509999986,123.56684629999995,124.06554029999984,124.48277810000013,124.34968330000015,124.34970820000012,125.66745920000017,125.66745920000017,126.40148680000016,left,1,0.7224475000002712,None,,,,,,,,,,,,,,,,,,,,,,,,,,,,,,,,,,,,,,,,,,,,,,,,,,,,,,,,,,,,,,,007,001,2023-11-12_14h10.18.277,untitled,2023.2.2,59.940754558161665,2023-11-12 14h10.28.769543 +0800,
2,condition_1/leftstar.PNG,space,,,,,0,15,15,1,,,,,,,,,126.45704869999986,,,,,,,,,,,,,,,,,,,,,,,,,,,,,,,,,,,,,,,,,,,,,126.40277700000001,126.45704869999986,126.9161160000001,126.91615160000015,127.41538160000005,127.82739030000016,127.70024559999979,127.7002742000002,129.0179741999998,129.0179741999998,129.43424630000004,space,1,0.41415839999990567,None,,,,,,,,,,,,,,,,,,,,,,,,,,,,,,,,,,,,,,,,,,,,,,,,,,,,,,,,,,,,,,,007,001,2023-11-12_14h10.18.277,untitled,2023.2.2,59.940754558161665,2023-11-12 14h10.28.769543 +0800,
8,condition_1/leftstar.PNG,left,,,,,0,16,16,18,,,,,,,,,129.48956169999997,,,,,,,,,,,,,,,,,,,,,,,,,,,,,,,,,,,,,,,,,,,,,129.43541919999984,129.48956169999997,129.95017699999994,129.95020020000015,130.44918949999987,130.85100239999997,130.73287490000007,130.73290509999993,132.05058889999987,132.05058889999987,132.88433509999982,left,1,0.8175266999996893,None,132.86535600000002,,,,,,,,,,,,,,,,,,,,,,,,,,,,,,,,,,,,,,,,,,,,,,,,,,,,,,,,,,,,,,007,001,2023-11-12_14h10.18.277,untitled,2023.2.2,59.940754558161665,2023-11-12 14h10.28.769543 +0800,
2,condition_1/rightstar.PNG,space,,,,,0,17,17,21,,,,,,,,,132.93943090000016,,,,,,,,,,,,,,,,,,,,,,,,,,,,,,,,,,,,,,,,,,,,,132.88539620000006,132.93943090000016,133.39925789999984,133.3992807000002,133.89855469999998,134.2992569999999,134.18282939999995,134.1828551000001,135.50084889999994,135.50084889999994,135.8341681999998,space,1,0.3208531000000221,None,,,,,,,,,,,,,,,,,,,,,,,,,,,,,,,,,,,,,,,,,,,,,,,,,,,,,,,,,,,,,,,007,001,2023-11-12_14h10.18.277,untitled,2023.2.2,59.940754558161665,2023-11-12 14h10.28.769543 +0800,
8,condition_1/blank.PNG,space,,,,,0,18,18,24,,,,,,,,,135.8891801000002,,,,,,,,,,,,,,,,,,,,,,,,,,,,,,,,,,,,,,,,,,,,,135.8352508999999,135.8891801000002,136.34937100000002,136.34939120000013,136.8485446000002,137.26426920000017,137.1331760999999,137.13321359999986,138.45000099999993,138.45000099999993,139.1010447000001,space,1,0.6358278000002429,None,,,,,,,,,,,,,,,,,,,,,,,,,,,,,,,,,,,,,,,,,,,,,,,,,,,,,,,,,,,,,,,007,001,2023-11-12_14h10.18.277,untitled,2023.2.2,59.940754558161665,2023-11-12 14h10.28.769543 +0800,
1,condition_1/leftstar.PNG,space,,,,,0,19,19,16,,,,,,,,,139.15343770000004,,,,,,,,,,,,,,,,,,,,,,,,,,,,,,,,,,,,,,,,,,,,,139.1023376999999,139.15343770000004,139.6162265999999,139.61626330000013,140.11534490000008,140.63094149999984,140.39978570000017,140.3998127000002,141.71764610000014,141.71764610000014,141.8342086,space,1,0.10428920000003927,None,,,,,,,,,,,,,,,,,,,,,,,,,,,,,,,,,,,,,,,,,,,,,,,,,,,,,,,,,,,,,,,007,001,2023-11-12_14h10.18.277,untitled,2023.2.2,59.940754558161665,2023-11-12 14h10.28.769543 +0800,
1,condition_1/rightstar.PNG,space,,,,,0,20,20,12,,,,,,,,,141.89004249999994,,,,,,,,,,,,,,,,,,,,,,,,,,,,,,,,,,,,,,,,,,,,,141.8352622,141.89004249999994,142.34958949999987,142.34962830000018,142.84871859999998,143.26588890000016,143.13361079999981,143.13364380000007,144.4506786999998,144.4506786999998,145.7504676000001,space,1,1.2898393999998916,None,145.26545790000023,,,,,,,,,,,,,,,,,,,,,,,,,,,,,,,,,,,,,,,,,,,,,,,,,,,,,,,,,,,,,,007,001,2023-11-12_14h10.18.277,untitled,2023.2.2,59.940754558161665,2023-11-12 14h10.28.769543 +0800,
2,condition_1/blank.PNG,space,,,,,0,21,21,9,,,,,,,,,145.8160203,,,,,,,,,,,,,,,,,,,,,,,,,,,,,,,,,,,,,,,,,,,,,145.75151970000002,145.8160203,146.2661568000001,146.26618080000003,146.76542929999982,147.1313649000001,147.0499438999998,147.0499741000001,148.3664609,148.3664609,149.00016260000007,space,1,0.6233914999997978,None,,,,,,,,,,,,,,,,,,,,,,,,,,,,,,,,,,,,,,,,,,,,,,,,,,,,,,,,,,,,,,,007,001,2023-11-12_14h10.18.277,untitled,2023.2.2,59.940754558161665,2023-11-12 14h10.28.769543 +0800,
1,condition_1/leftstar.PNG,space,,,,,0,22,22,22,,,,,,,,,149.04740160000006,,,,,,,,,,,,,,,,,,,,,,,,,,,,,,,,,,,,,,,,,,,,,149.00077320000014,149.04740160000006,149.5161470999999,149.51617109999984,150.0153560000001,150.5537700000002,150.29968440000016,150.2997087000001,151.61747189999983,151.61747189999983,151.95067330000006,space,1,0.32453750000013315,None,,,,,,,,,,,,,,,,,,,,,,,,,,,,,,,,,,,,,,,,,,,,,,,,,,,,,,,,,,,,,,,007,001,2023-11-12_14h10.18.277,untitled,2023.2.2,59.940754558161665,2023-11-12 14h10.28.769543 +0800,
8,condition_1/rightstar.PNG,right,,,,,0,23,23,6,,,,,,,,,152.0072246000002,,,,,,,,,,,,,,,,,,,,,,,,,,,,,,,,,,,,,,,,,,,,,151.9517755999998,152.0072246000002,152.46612500000015,152.46614890000023,152.9654536999999,153.39001510000003,153.24978540000006,153.24981330000014,154.5677576999999,154.5677576999999,154.90198609999993,right,1,0.31751859999985754,None,,,,,,,,,,,,,,,,,,,,,,,,,,,,,,,,,,,,,,,,,,,,,,,,,,,,,,,,,,,,,,,007,001,2023-11-12_14h10.18.277,untitled,2023.2.2,59.940754558161665,2023-11-12 14h10.28.769543 +0800,
1,condition_1/blank.PNG,space,,,,,0,24,24,8,,,,,,,,,154.96693750000009,,,,,,,,,,,,,,,,,,,,,,,,,,,,,,,,,,,,,,,,,,,,,154.90328609999983,154.96693750000009,155.4161975999998,155.4162199,155.91546959999982,156.29054669999982,156.19950390000008,156.19952930000022,157.51673959999994,157.51673959999994,158.03406680000012,space,1,0.5106931999998778,None,,,,,,,,,,,,,,,,,,,,,,,,,,,,,,,,,,,,,,,,,,,,,,,,,,,,,,,,,,,,,,,007,001,2023-11-12_14h10.18.277,untitled,2023.2.2,59.940754558161665,2023-11-12 14h10.28.769543 +0800,
8,condition_1/rightstar.PNG,right,,,,,1,0,25,6,,,,,,,,,158.10435440000015,,,,,,,,,,,,,,,,,,,,,,,,,,,,,,,,,,,,,,,,,,,,,158.03514269999982,158.10435440000015,158.54957679999984,158.54961070000013,159.04862630000002,159.6076218999999,159.33309050000003,159.3331165000002,160.6507008000001,160.6507008000001,161.01796219999983,right,1,0.3526790999999321,None,,,,,,,,,,,,,,,,,,,,,,,,,,,,,,,,,,,,,,,,,,,,,,,,,,,,,,,,,,,,,,,007,001,2023-11-12_14h10.18.277,untitled,2023.2.2,59.940754558161665,2023-11-12 14h10.28.769543 +0800,
9,condition_1/rightstar.PNG,right,,,,,1,1,26,7,,,,,,,,,161.0761589000001,,,,,,,,,,,,,,,,,,,,,,,,,,,,,,,,,,,,,,,,,,,,,161.01906729999996,161.0761589000001,161.53268700000012,161.5327089,162.03183400000012,162.45771910000008,162.31670370000006,162.31673250000017,163.6341688,163.6341688,163.96755420000022,right,1,0.32401709999976447,None,,,,,,,,,,,,,,,,,,,,,,,,,,,,,,,,,,,,,,,,,,,,,,,,,,,,,,,,,,,,,,,007,001,2023-11-12_14h10.18.277,untitled,2023.2.2,59.940754558161665,2023-11-12 14h10.28.769543 +0800,
8,condition_1/blank.PNG,space,,,,,1,2,27,10,,,,,,,,,164.0254284,,,,,,,,,,,,,,,,,,,,,,,,,,,,,,,,,,,,,,,,,,,,,163.9686432000001,164.0254284,164.48270810000008,164.48272900000006,164.98213079999982,165.34570159999998,165.26601730000016,165.26604139999995,166.58313609999982,166.58313609999982,167.55002649999983,space,1,0.9600504000000001,None,167.38190850000024,,,,,,,,,,,,,,,,,,,,,,,,,,,,,,,,,,,,,,,,,,,,,,,,,,,,,,,,,,,,,,007,001,2023-11-12_14h10.18.277,untitled,2023.2.2,59.940754558161665,2023-11-12 14h10.28.769543 +0800,
8,condition_1/rightstar.PNG,right,,,,,1,3,28,14,,,,,,,,,167.6161070999999,,,,,,,,,,,,,,,,,,,,,,,,,,,,,,,,,,,,,,,,,,,,,167.55111009999996,167.6161070999999,168.06606399999987,168.06609980000007,168.56537409999987,169.09444240000016,168.84928839999998,168.84931299999994,170.1675633000002,170.1675633000002,170.53406430000018,right,1,0.3553553000001557,None,,,,,,,,,,,,,,,,,,,,,,,,,,,,,,,,,,,,,,,,,,,,,,,,,,,,,,,,,,,,,,,007,001,2023-11-12_14h10.18.277,untitled,2023.2.2,59.940754558161665,2023-11-12 14h10.28.769543 +0800,
8,condition_1/rightstar.PNG,right,,,,,1,4,29,23,,,,,,,,,170.6163441000001,,,,,,,,,,,,,,,,,,,,,,,,,,,,,,,,,,,,,,,,,,,,,170.53510200000005,170.6163441000001,171.04952359999993,171.0495469,171.5486328999998,171.97210440000003,171.83357730000012,171.83360319999997,173.15105990000006,173.15105990000006,173.5007665999999,right,1,0.33420350000005783,None,,,,,,,,,,,,,,,,,,,,,,,,,,,,,,,,,,,,,,,,,,,,,,,,,,,,,,,,,,,,,,,007,001,2023-11-12_14h10.18.277,untitled,2023.2.2,59.940754558161665,2023-11-12 14h10.28.769543 +0800,
9,condition_1/leftstar.PNG,left,,,,,1,5,30,3,,,,,,,,,173.55659189999983,,,,,,,,,,,,,,,,,,,,,,,,,,,,,,,,,,,,,,,,,,,,,173.50185739999984,173.55659189999983,174.01626520000013,174.01628940000023,174.51531709999995,174.9308451999998,174.7998338,174.79985950000014,176.11756309999987,176.11756309999987,176.6173753999999,left,1,0.4977342000001954,None,,,,,,,,,,,,,,,,,,,,,,,,,,,,,,,,,,,,,,,,,,,,,,,,,,,,,,,,,,,,,,,007,001,2023-11-12_14h10.18.277,untitled,2023.2.2,59.940754558161665,2023-11-12 14h10.28.769543 +0800,
2,condition_1/rightstar.PNG,space,,,,,1,6,31,5,,,,,,,,,176.6714797000002,,,,,,,,,,,,,,,,,,,,,,,,,,,,,,,,,,,,,,,,,,,,,176.6184854999999,176.6714797000002,177.13312900000005,177.13315279999983,177.63207339999985,178.04291320000016,177.91654559999984,177.91657180000016,179.23403970000004,179.23403970000004,180.28332030000024,space,1,1.0447221999997964,None,180.0486828999999,,,,,,,,,,,,,,,,,,,,,,,,,,,,,,,,,,,,,,,,,,,,,,,,,,,,,,,,,,,,,,007,001,2023-11-12_14h10.18.277,untitled,2023.2.2,59.940754558161665,2023-11-12 14h10.28.769543 +0800,
2,condition_1/blank.PNG,space,,,,,1,7,32,9,,,,,,,,,180.37964799999986,,,,,,,,,,,,,,,,,,,,,,,,,,,,,,,,,,,,,,,,,,,,,180.28490639999995,180.37964799999986,180.79953460000002,180.79956389999984,181.29870779999987,181.7216721000002,181.58387259999995,181.5838986000001,182.89994390000015,182.89994390000015,183.68391450000013,space,1,0.7774946999998065,None,183.7634147000001,,,,,,,,,,,,,,,,,,,,,,,,,,,,,,,,,,,,,,,,,,,,,,,,,,,,,,,,,,,,,,007,001,2023-11-12_14h10.18.277,untitled,2023.2.2,59.940754558161665,2023-11-12 14h10.28.769543 +0800,
8,condition_1/leftstar.PNG,left,,,,,1,8,33,2,,,,,,,,,183.7634147000001,,,,,,,,,,,,,,,,,,,,,,,,,,,,,,,,,,,,,,,,,,,,,183.68491319999998,183.7634147000001,184.1992799000002,184.1993027000001,184.69850770000016,185.27543690000016,184.9833074999999,184.9833311,186.30068749999987,186.30068749999987,186.7344845,left,1,0.4303320999997595,None,,,,,,,,,,,,,,,,,,,,,,,,,,,,,,,,,,,,,,,,,,,,,,,,,,,,,,,,,,,,,,,007,001,2023-11-12_14h10.18.277,untitled,2023.2.2,59.940754558161665,2023-11-12 14h10.28.769543 +0800,
2,condition_1/leftstar.PNG,space,,,,,1,9,34,1,,,,,,,,,186.78574430000003,,,,,,,,,,,,,,,,,,,,,,,,,,,,,,,,,,,,,,,,,,,,,186.73555610000017,186.78574430000003,187.24949249999986,187.24951579999993,187.74860160000003,188.1516898000002,188.03284430000008,188.03286950000006,189.35077380000007,189.35077380000007,190.1010775000002,space,1,0.74849230000018,None,,,,,,,,,,,,,,,,,,,,,,,,,,,,,,,,,,,,,,,,,,,,,,,,,,,,,,,,,,,,,,,007,001,2023-11-12_14h10.18.277,untitled,2023.2.2,59.940754558161665,2023-11-12 14h10.28.769543 +0800,
9,condition_1/rightstar.PNG,right,,,,,1,10,35,15,,,,,,,,,190.15770099999986,,,,,,,,,,,,,,,,,,,,,,,,,,,,,,,,,,,,,,,,,,,,,190.10227610000015,190.15770099999986,190.6160708,190.61611199999993,191.11537019999992,191.5175058000002,191.39967920000004,191.3997066999998,192.71737210000015,192.71737210000015,193.2008011999999,space,0,0.46773799999982657,None,,,,,,,,,,,,,,,,,,,,,,,,,,,,,,,,,,,,,,,,,,,,,,,,,,,,,,,,,,,,,,,007,001,2023-11-12_14h10.18.277,untitled,2023.2.2,59.940754558161665,2023-11-12 14h10.28.769543 +0800,
2,condition_1/rightstar.PNG,space,,,,,1,11,36,21,,,,,,,,,193.30595449999987,,,,,,,,,,,,,,,,,,,,,,,,,,,,,,,,,,,,,,,,,,,,,193.20187409999994,193.30595449999987,193.71610299999998,193.7161262000002,194.2152263999999,194.61977880000018,194.49942339999984,194.49944819999996,195.81753460000004,195.81753460000004,196.60190339999986,space,1,0.7766738999998779,None,,,,,,,,,,,,,,,,,,,,,,,,,,,,,,,,,,,,,,,,,,,,,,,,,,,,,,,,,,,,,,,007,001,2023-11-12_14h10.18.277,untitled,2023.2.2,59.940754558161665,2023-11-12 14h10.28.769543 +0800,
1,condition_1/leftstar.PNG,space,,,,,1,12,37,16,,,,,,,,,196.65668759999994,,,,,,,,,,,,,,,,,,,,,,,,,,,,,,,,,,,,,,,,,,,,,196.6030333000001,196.65668759999994,197.11631740000007,197.1163528999998,197.6153581000001,198.02111609999997,197.89987480000013,197.8998992999998,199.21745910000004,199.21745910000004,199.53417730000024,space,1,0.31246199999986857,None,,,,,,,,,,,,,,,,,,,,,,,,,,,,,,,,,,,,,,,,,,,,,,,,,,,,,,,,,,,,,,,007,001,2023-11-12_14h10.18.277,untitled,2023.2.2,59.940754558161665,2023-11-12 14h10.28.769543 +0800,
9,condition_1/blank.PNG,space,,,,,1,13,38,11,,,,,,,,,199.58843760000013,,,,,,,,,,,,,,,,,,,,,,,,,,,,,,,,,,,,,,,,,,,,,199.5353118999999,199.58843760000013,200.0493696000001,200.04944550000005,200.54853939999998,200.96382299999982,200.83291320000012,200.83293849999995,202.14978859999997,202.14978859999997,202.60125690000018,space,1,0.4408531999997649,None,,,,,,,,,,,,,,,,,,,,,,,,,,,,,,,,,,,,,,,,,,,,,,,,,,,,,,,,,,,,,,,007,001,2023-11-12_14h10.18.277,untitled,2023.2.2,59.940754558161665,2023-11-12 14h10.28.769543 +0800,
9,condition_1/leftstar.PNG,left,,,,,1,14,39,19,,,,,,,,,202.67106679999983,,,,,,,,,,,,,,,,,,,,,,,,,,,,,,,,,,,,,,,,,,,,,202.6027044,202.67106679999983,203.1165113999998,203.11654750000002,203.6153280000001,204.1399371,203.8995163000002,203.8995407,205.21722049999994,205.21722049999994,205.65056260000006,left,1,0.4226765999997042,None,,,,,,,,,,,,,,,,,,,,,,,,,,,,,,,,,,,,,,,,,,,,,,,,,,,,,,,,,,,,,,,007,001,2023-11-12_14h10.18.277,untitled,2023.2.2,59.940754558161665,2023-11-12 14h10.28.769543 +0800,
1,condition_1/blank.PNG,space,,,,,1,15,40,8,,,,,,,,,205.7040982000001,,,,,,,,,,,,,,,,,,,,,,,,,,,,,,,,,,,,,,,,,,,,,205.65161779999994,205.7040982000001,206.1660389000001,206.16607219999992,206.66514329999995,207.0328652999999,206.94984869999985,206.94987400000014,208.2663798000001,208.2663798000001,209.5832197000002,space,1,1.3028981999996176,None,209.06524280000008,,,,,,,,,,,,,,,,,,,,,,,,,,,,,,,,,,,,,,,,,,,,,,,,,,,,,,,,,,,,,,007,001,2023-11-12_14h10.18.277,untitled,2023.2.2,59.940754558161665,2023-11-12 14h10.28.769543 +0800,
9,condition_1/leftstar.PNG,left,,,,,1,16,41,20,,,,,,,,,209.63861079999992,,,,,,,,,,,,,,,,,,,,,,,,,,,,,,,,,,,,,,,,,,,,,209.58375039999987,209.63861079999992,210.0993761000002,210.0994118000001,210.59867090000012,211.0095721,210.8828633999999,210.88288829999988,212.20055560000014,212.20055560000014,212.63441579999994,left,1,0.4214400000000751,None,,,,,,,,,,,,,,,,,,,,,,,,,,,,,,,,,,,,,,,,,,,,,,,,,,,,,,,,,,,,,,,007,001,2023-11-12_14h10.18.277,untitled,2023.2.2,59.940754558161665,2023-11-12 14h10.28.769543 +0800,
1,condition_1/rightstar.PNG,space,,,,,1,17,42,12,,,,,,,,,212.6864078000001,,,,,,,,,,,,,,,,,,,,,,,,,,,,,,,,,,,,,,,,,,,,,212.63550809999992,212.6864078000001,213.14929030000008,213.1493121000001,213.64857659999984,214.04670240000019,213.93280479999999,213.93282890000023,215.25073799999996,215.25073799999996,215.41766080000002,space,1,0.15995359999988068,None,,,,,,,,,,,,,,,,,,,,,,,,,,,,,,,,,,,,,,,,,,,,,,,,,,,,,,,,,,,,,,,007,001,2023-11-12_14h10.18.277,untitled,2023.2.2,59.940754558161665,2023-11-12 14h10.28.769543 +0800,
8,condition_1/blank.PNG,space,,,,,1,18,43,24,,,,,,,,,215.47094889999994,,,,,,,,,,,,,,,,,,,,,,,,,,,,,,,,,,,,,,,,,,,,,215.4188201999998,215.47094889999994,215.93281159999992,215.93286939999984,216.43195880000007,216.7976424000001,216.71630690000006,216.71633899999983,218.03365069999995,218.03365069999995,218.40128440000012,space,1,0.36408289999963017,None,,,,,,,,,,,,,,,,,,,,,,,,,,,,,,,,,,,,,,,,,,,,,,,,,,,,,,,,,,,,,,,007,001,2023-11-12_14h10.18.277,untitled,2023.2.2,59.940754558161665,2023-11-12 14h10.28.769543 +0800,
1,condition_1/leftstar.PNG,space,,,,,1,19,44,0,,,,,,,,,218.46210469999983,,,,,,,,,,,,,,,,,,,,,,,,,,,,,,,,,,,,,,,,,,,,,218.40243299999997,218.46210469999983,218.9161302,218.91618369999992,219.41521269999998,219.96444180000003,219.69976710000014,219.69979230000013,221.01746590000016,221.01746590000016,221.21750700000007,space,1,0.19266019999986383,None,,,,,,,,,,,,,,,,,,,,,,,,,,,,,,,,,,,,,,,,,,,,,,,,,,,,,,,,,,,,,,,007,001,2023-11-12_14h10.18.277,untitled,2023.2.2,59.940754558161665,2023-11-12 14h10.28.769543 +0800,
8,condition_1/leftstar.PNG,left,,,,,1,20,45,18,,,,,,,,,221.27009079999993,,,,,,,,,,,,,,,,,,,,,,,,,,,,,,,,,,,,,,,,,,,,,221.2186204000002,221.27009079999993,221.7328275000002,221.73288370000023,222.23173819999988,222.64808199999993,222.51622280000015,222.51625080000008,223.8340598000002,223.8340598000002,224.5179642999999,left,1,0.671480800000154,None,,,,,,,,,,,,,,,,,,,,,,,,,,,,,,,,,,,,,,,,,,,,,,,,,,,,,,,,,,,,,,,007,001,2023-11-12_14h10.18.277,untitled,2023.2.2,59.940754558161665,2023-11-12 14h10.28.769543 +0800,
1,condition_1/leftstar.PNG,space,,,,,1,21,46,22,,,,,,,,,224.5802812999998,,,,,,,,,,,,,,,,,,,,,,,,,,,,,,,,,,,,,,,,,,,,,224.51905999999985,224.5802812999998,225.0328634,225.03289019999988,225.5321319000002,225.95950830000015,225.81654379999986,225.81657269999982,227.13411969999993,227.13411969999993,228.13310220000017,space,1,0.9964609999997265,None,227.94859969999993,,,,,,,,,,,,,,,,,,,,,,,,,,,,,,,,,,,,,,,,,,,,,,,,,,,,,,,,,,,,,,007,001,2023-11-12_14h10.18.277,untitled,2023.2.2,59.940754558161665,2023-11-12 14h10.28.769543 +0800,
2,condition_1/leftstar.PNG,space,,,,,1,22,47,17,,,,,,,,,228.1892522999999,,,,,,,,,,,,,,,,,,,,,,,,,,,,,,,,,,,,,,,,,,,,,228.13405609999995,228.1892522999999,228.6498941000002,228.64991759999998,229.14876729999992,229.56258679999996,229.43282329999988,229.43284849999986,230.7505610999999,230.7505610999999,231.33412280000016,space,1,0.577773900000011,None,,,,,,,,,,,,,,,,,,,,,,,,,,,,,,,,,,,,,,,,,,,,,,,,,,,,,,,,,,,,,,,007,001,2023-11-12_14h10.18.277,untitled,2023.2.2,59.940754558161665,2023-11-12 14h10.28.769543 +0800,
2,condition_1/rightstar.PNG,space,,,,,1,23,48,13,,,,,,,,,231.39014389999988,,,,,,,,,,,,,,,,,,,,,,,,,,,,,,,,,,,,,,,,,,,,,231.3352010000001,231.39014389999988,231.84943580000004,231.84947609999995,232.34870620000015,232.75115840000012,232.63325129999998,232.63328449999995,233.9507775999998,233.9507775999998,234.63425440000015,space,1,0.675135500000124,None,,,,,,,,,,,,,,,,,,,,,,,,,,,,,,,,,,,,,,,,,,,,,,,,,,,,,,,,,,,,,,,007,001,2023-11-12_14h10.18.277,untitled,2023.2.2,59.940754558161665,2023-11-12 14h10.28.769543 +0800,
1,condition_1/rightstar.PNG,space,,,,,1,24,49,4,,,,,,,,,234.68413170000008,,,,,,,,,,,,,,,,,,,,,,,,,,,,,,,,,,,,,,,,,,,,,234.63533080000002,234.68413170000008,235.14948549999986,235.1495094999998,235.64889960000005,236.0506170000001,235.93342289999987,235.93345139999997,237.2507450999999,237.2507450999999,237.5681192999998,space,1,0.3108756000001449,None,,,,,,,,,,,,,,,,,,,,,,,,,,,,,,,,,,,,,,,,,,,,,,,,,,,,,,,,,,,,,,,007,001,2023-11-12_14h10.18.277,untitled,2023.2.2,59.940754558161665,2023-11-12 14h10.28.769543 +0800,
,,,,,,,,,,,,,,,,,,,,,,,,,,,,,,,,,,,,,,,,,,,,,,,,,,,,,,,,,,,,,,,,,,,,,,,,,,,,,,,,237.5690006000002,237.58189890000017,237.58189890000017,247.15008969999985,space,9.560834700000214,None,,,,,,,,,,,,,,,,,,,,,,,,,,,,,,,,,,,,,,,,,,,,,,,,,,,,,,,007,001,2023-11-12_14h10.18.277,untitled,2023.2.2,59.940754558161665,2023-11-12 14h10.28.769543 +0800,
,,,,,,,,,,,,,,,,,,,,,,,,,,,,,,,,,,,,,,,,,,,,,,,,,,,,,,,,,,,,,,,,,,,,,,,,,,,,,,,,,,,,,,,247.1501409,247.16545930000007,247.16545930000007,257.6674102999998,space,10.50044889999981,None,,,,,,,,,,,,,,,,,,,,,,,,,,,,,,,,,,,,,,,,,,,,,,,,007,001,2023-11-12_14h10.18.277,untitled,2023.2.2,59.940754558161665,2023-11-12 14h10.28.769543 +0800,
8,test2/rightstar.PNG,space,,,,,,,,,0,0,0,5,,,,,257.7725176000001,,,,,,,,,,,,,,,,,,,,,,,,,,,,,,,,,,,,,,,,,,,,,,,,,,,,,,,,,,,,,,,,,,,,,,,,,,,257.68742829999997,257.7725176000001,258.18256769999994,258.18259330000024,258.68191820000015,259.2108983999999,258.96611499999995,258.9661423,260.2978687000002,260.2978687000002,261.09847490000016,264.1504551999999,space,3.847843600000033,None,,,,,,,,,,,,,,,,,,,,,,,,,,,,,,,,,007,001,2023-11-12_14h10.18.277,untitled,2023.2.2,59.940754558161665,2023-11-12 14h10.28.769543 +0800,
2,test2/leftstar.PNG,left,,,,,,,,,0,1,1,4,,,,,264.2052771000001,,,,,,,,,,,,,,,,,,,,,,,,,,,,,,,,,,,,,,,,,,,,,,,,,,,,,,,,,,,,,,,,,,,,,,,,,,,264.1517086000001,264.2052771000001,264.6658974999998,264.6659348999999,265.16531139999984,265.56639659999996,265.4495121000002,265.44953820000023,266.76759449999986,266.76759449999986,,267.3006114000002,left,0.5259805999999116,None,,,,,,,,,,,,,,,,,,,,,,,,,,,,,,,,,007,001,2023-11-12_14h10.18.277,untitled,2023.2.2,59.940754558161665,2023-11-12 14h10.28.769543 +0800,
9,test2/rightstar.PNG,space,,,,,,,,,0,2,2,3,,,,,267.3640815000001,,,,,,,,,,,,,,,,,,,,,,,,,,,,,,,,,,,,,,,,,,,,,,,,,,,,,,,,,,,,,,,,,,,,,,,,,,,267.30149430000006,267.3640815000001,267.8159195999999,267.8159621000002,268.3156554999998,268.7219053000001,268.59965130000023,268.59967759999995,269.9173441999999,269.9173441999999,270.7320038999999,270.9182794999999,space,0.9974913000000925,None,,,,,,,,,,,,,,,,,,,,,,,,,,,,,,,,,007,001,2023-11-12_14h10.18.277,untitled,2023.2.2,59.940754558161665,2023-11-12 14h10.28.769543 +0800,
1,test2/leftstar.PNG,left,,,,,,,,,0,3,3,0,,,,,270.9769401000001,,,,,,,,,,,,,,,,,,,,,,,,,,,,,,,,,,,,,,,,,,,,,,,,,,,,,,,,,,,,,,,,,,,,,,,,,,,270.9193161999999,270.9769401000001,271.43249230000015,271.4325167999998,271.9317792999998,272.3438828000001,272.21608170000013,272.21610669999995,273.53426650000006,273.53426650000006,,274.0175676000001,left,0.47589990000005855,None,,,,,,,,,,,,,,,,,,,,,,,,,,,,,,,,,007,001,2023-11-12_14h10.18.277,untitled,2023.2.2,59.940754558161665,2023-11-12 14h10.28.769543 +0800,
8,test2/rightstar.PNG,space,,,,,,,,,0,4,4,1,,,,,274.0720788000001,,,,,,,,,,,,,,,,,,,,,,,,,,,,,,,,,,,,,,,,,,,,,,,,,,,,,,,,,,,,,,,,,,,,,,,,,,,274.01859119999995,274.0720788000001,274.5323440999998,274.5323701,275.0318596999998,275.44500410000023,275.3163049000002,275.3163318999998,276.63411800000017,276.63411800000017,,276.9842393000001,space,0.33482649999996283,None,,,,,,,,,,,,,,,,,,,,,,,,,,,,,,,,,007,001,2023-11-12_14h10.18.277,untitled,2023.2.2,59.940754558161665,2023-11-12 14h10.28.769543 +0800,
1,test2/blank.PNG,space,,,,,,,,,0,5,5,2,,,,,277.0353768000002,,,,,,,,,,,,,,,,,,,,,,,,,,,,,,,,,,,,,,,,,,,,,,,,,,,,,,,,,,,,,,,,,,,,,,,,,,,276.9853264999999,277.0353768000002,277.4992297000001,277.49925659999985,277.9986812999998,278.42068919999997,278.2829936999999,278.28301970000007,279.5999737999998,279.5999737999998,,280.3008806999999,space,0.6901926000000458,None,,,,,,,,,,,,,,,,,,,,,,,,,,,,,,,,,007,001,2023-11-12_14h10.18.277,untitled,2023.2.2,59.940754558161665,2023-11-12 14h10.28.769543 +0800,
,,,,,,,,,,,,,,,,,,,,,,,,,,,,,,,,,,,,,,,,,,,,,,,,,,,,,,,,,,,,,,,,,,,,,,,,,,,,,,,,,,,,,,,,,,,,,,,,,,,,,,,,,,,,,280.3015809000001,280.3153295999998,280.3153295999998,281.3153909,284.71735049999984,space,4.3932755000000725,None,,,,,,,,,,,,,,,,,,,,,,,,,007,001,2023-11-12_14h10.18.277,untitled,2023.2.2,59.940754558161665,2023-11-12 14h10.28.769543 +0800,
,,,,,,,,,,,,,,,,,,,,,,,,,,,,,,,,,,,,,,,,,,,,,,,,,,,,,,,,,,,,,,,,,,,,,,,,,,,,,,,,,,,,,,,,,,,,,,,,,,,,,,,,,,,,,,,,,,,,,284.7174372000002,284.7318598999998,284.7318598999998,285.7319252,288.01665260000004,space,3.274892700000237,None,,,,,,,,,,,,,,,,,007,001,2023-11-12_14h10.18.277,untitled,2023.2.2,59.940754558161665,2023-11-12 14h10.28.769543 +0800,
2,condition_2/leftstar.PNG,left,,,,,,,,,,,,,0,0,0,1,288.1072150000002,,,,,,,,,,,,,,,,,,,,,,,,,,,,,,,,,,,,,,,,,,,,,,,,,,,,,,,,,,,,,,,,,,,,,,,,,,,,,,,,,,,,,,,,,,,,,,,,,,,,,,,,,,288.0380518999998,288.1072150000002,288.53273109999986,288.53275929999995,289.0317275,289.5778622999999,289.3165247999998,289.3165591999998,290.6471844,290.6471844,291.11823560000016,left,1,0.46899389999998675,None,,007,001,2023-11-12_14h10.18.277,untitled,2023.2.2,59.940754558161665,2023-11-12 14h10.28.769543 +0800,
2,condition_2/blank.PNG,space,,,,,,,,,,,,,0,1,1,20,291.18049829999995,,,,,,,,,,,,,,,,,,,,,,,,,,,,,,,,,,,,,,,,,,,,,,,,,,,,,,,,,,,,,,,,,,,,,,,,,,,,,,,,,,,,,,,,,,,,,,,,,,,,,,,,,,291.1197811999998,291.18049829999995,291.63270780000016,291.63275450000015,292.13196159999984,292.51564699999994,292.41662550000024,292.4166609000001,293.73322059999987,293.73322059999987,294.1508314,space,1,0.4152566999996452,None,,007,001,2023-11-12_14h10.18.277,untitled,2023.2.2,59.940754558161665,2023-11-12 14h10.28.769543 +0800,
8,condition_2/rightstar.PNG,space,,,,,,,,,,,,,0,2,2,23,294.20173439999985,,,,,,,,,,,,,,,,,,,,,,,,,,,,,,,,,,,,,,,,,,,,,,,,,,,,,,,,,,,,,,,,,,,,,,,,,,,,,,,,,,,,,,,,,,,,,,,,,,,,,,,,,,294.1519458,294.20173439999985,294.6660542000002,294.66608500000007,295.1655549999998,295.60007599999994,295.4506023000001,295.4506434000002,296.7676442999998,296.7676442999998,297.0846954000001,space,1,0.3035154999997758,None,,007,001,2023-11-12_14h10.18.277,untitled,2023.2.2,59.940754558161665,2023-11-12 14h10.28.769543 +0800,
8,condition_2/leftstar.PNG,space,,,,,,,,,,,,,0,3,3,18,297.14363849999995,,,,,,,,,,,,,,,,,,,,,,,,,,,,,,,,,,,,,,,,,,,,,,,,,,,,,,,,,,,,,,,,,,,,,,,,,,,,,,,,,,,,,,,,,,,,,,,,,,,,,,,,,,297.08618520000005,297.14363849999995,297.59937990000003,297.59942849999993,298.0987889999999,298.523109,298.38298039999995,298.3830059999998,299.70065120000004,299.70065120000004,300.5669725999999,space,1,0.8504539000000477,None,300.51511319999986,007,001,2023-11-12_14h10.18.277,untitled,2023.2.2,59.940754558161665,2023-11-12 14h10.28.769543 +0800,
1,condition_2/leftstar.PNG,left,,,,,,,,,,,,,0,4,4,0,300.6344796000001,,,,,,,,,,,,,,,,,,,,,,,,,,,,,,,,,,,,,,,,,,,,,,,,,,,,,,,,,,,,,,,,,,,,,,,,,,,,,,,,,,,,,,,,,,,,,,,,,,,,,,,,,,300.56815029999984,300.6344796000001,301.0830563000002,301.08307930000024,301.5818923999998,302.02683779999984,301.8666043999999,301.8666304000001,303.1838229000002,303.1838229000002,303.63404920000016,left,1,0.4395521999999801,None,,007,001,2023-11-12_14h10.18.277,untitled,2023.2.2,59.940754558161665,2023-11-12 14h10.28.769543 +0800,
1,condition_2/rightstar.PNG,right,,,,,,,,,,,,,0,5,5,21,303.68662930000005,,,,,,,,,,,,,,,,,,,,,,,,,,,,,,,,,,,,,,,,,,,,,,,,,,,,,,,,,,,,,,,,,,,,,,,,,,,,,,,,,,,,,,,,,,,,,,,,,,,,,,,,,,303.6352567000001,303.68662930000005,304.1492058000001,304.1492504,304.64860639999984,305.0510477999999,304.93307149999987,304.93312889999993,306.25080349999985,306.25080349999985,306.83380109999985,right,1,0.5682692999998835,None,,007,001,2023-11-12_14h10.18.277,untitled,2023.2.2,59.940754558161665,2023-11-12 14h10.28.769543 +0800,
1,condition_2/rightstar.PNG,right,,,,,,,,,,,,,0,6,6,4,306.8870654,,,,,,,,,,,,,,,,,,,,,,,,,,,,,,,,,,,,,,,,,,,,,,,,,,,,,,,,,,,,,,,,,,,,,,,,,,,,,,,,,,,,,,,,,,,,,,,,,,,,,,,,,,306.8348708000001,306.8870654,307.3494653,307.3495059999998,307.8487687999998,308.2490359000001,308.13309090000007,308.1331263999998,309.45071889999986,309.45071889999986,309.8674474000002,right,1,0.40801779999992505,None,,007,001,2023-11-12_14h10.18.277,untitled,2023.2.2,59.940754558161665,2023-11-12 14h10.28.769543 +0800,
1,condition_2/leftstar.PNG,left,,,,,,,,,,,,,0,7,7,16,309.9220541000002,,,,,,,,,,,,,,,,,,,,,,,,,,,,,,,,,,,,,,,,,,,,,,,,,,,,,,,,,,,,,,,,,,,,,,,,,,,,,,,,,,,,,,,,,,,,,,,,,,,,,,,,,,309.8685127000001,309.9220541000002,310.3825132999998,310.3825395000001,310.8820297999998,311.2837388999999,311.1667986,311.16683530000023,312.483876,312.483876,312.9507001999998,left,1,0.4641719000001103,None,,007,001,2023-11-12_14h10.18.277,untitled,2023.2.2,59.940754558161665,2023-11-12 14h10.28.769543 +0800,
9,condition_2/blank.PNG,space,,,,,,,,,,,,,0,8,8,11,313.0106027999998,,,,,,,,,,,,,,,,,,,,,,,,,,,,,,,,,,,,,,,,,,,,,,,,,,,,,,,,,,,,,,,,,,,,,,,,,,,,,,,,,,,,,,,,,,,,,,,,,,,,,,,,,,312.9517758999998,313.0106027999998,313.46612630000004,313.46615320000024,313.9651829000002,314.3839403999998,314.2495274999999,314.24955380000006,315.56649059999995,315.56649059999995,316.0844930999999,space,1,0.5006167999999889,None,,007,001,2023-11-12_14h10.18.277,untitled,2023.2.2,59.940754558161665,2023-11-12 14h10.28.769543 +0800,
9,condition_2/leftstar.PNG,space,,,,,,,,,,,,,0,9,9,24,316.1405338000002,,,,,,,,,,,,,,,,,,,,,,,,,,,,,,,,,,,,,,,,,,,,,,,,,,,,,,,,,,,,,,,,,,,,,,,,,,,,,,,,,,,,,,,,,,,,,,,,,,,,,,,,,,316.08562050000023,316.1405338000002,316.5994475,316.59948899999995,317.0986446999998,317.6611884000001,317.383196,317.3832236999999,318.70095100000003,318.70095100000003,319.3180058999999,space,1,0.6072340999999142,None,,007,001,2023-11-12_14h10.18.277,untitled,2023.2.2,59.940754558161665,2023-11-12 14h10.28.769543 +0800,
1,condition_2/blank.PNG,space,,,,,,,,,,,,,0,10,10,8,319.37106610000023,,,,,,,,,,,,,,,,,,,,,,,,,,,,,,,,,,,,,,,,,,,,,,,,,,,,,,,,,,,,,,,,,,,,,,,,,,,,,,,,,,,,,,,,,,,,,,,,,,,,,,,,,,319.3193818000002,319.37106610000023,319.83268999999996,319.8327293,320.33196520000024,320.69391169999994,320.6162330999998,320.6162618999999,321.93318750000003,321.93318750000003,323.01706230000013,space,1,1.069191900000078,None,322.73175160000005,007,001,2023-11-12_14h10.18.277,untitled,2023.2.2,59.940754558161665,2023-11-12 14h10.28.769543 +0800,
2,condition_2/blank.PNG,space,,,,,,,,,,,,,0,11,11,9,323.0723194999998,,,,,,,,,,,,,,,,,,,,,,,,,,,,,,,,,,,,,,,,,,,,,,,,,,,,,,,,,,,,,,,,,,,,,,,,,,,,,,,,,,,,,,,,,,,,,,,,,,,,,,,,,,323.0181562,323.0723194999998,323.53254300000003,323.53258489999985,324.0319975,324.3517482,324.3162549000001,324.3162828000002,325.6329665999999,325.6329665999999,326.3508878,space,1,0.7159343000002991,None,,007,001,2023-11-12_14h10.18.277,untitled,2023.2.2,59.940754558161665,2023-11-12 14h10.28.769543 +0800,
8,condition_2/rightstar.PNG,space,,,,,,,,,,,,,0,12,12,14,326.40359460000013,,,,,,,,,,,,,,,,,,,,,,,,,,,,,,,,,,,,,,,,,,,,,,,,,,,,,,,,,,,,,,,,,,,,,,,,,,,,,,,,,,,,,,,,,,,,,,,,,,,,,,,,,,326.35197840000023,326.40359460000013,326.86601859999996,326.86605780000014,327.3650894,327.8709937000001,327.64998720000017,327.65001659999984,328.9670950000002,328.9670950000002,329.0345021999999,space,1,0.05951790000017354,None,,007,001,2023-11-12_14h10.18.277,untitled,2023.2.2,59.940754558161665,2023-11-12 14h10.28.769543 +0800,
9,condition_2/leftstar.PNG,space,,,,,,,,,,,,,0,13,13,3,329.11615159999997,,,,,,,,,,,,,,,,,,,,,,,,,,,,,,,,,,,,,,,,,,,,,,,,,,,,,,,,,,,,,,,,,,,,,,,,,,,,,,,,,,,,,,,,,,,,,,,,,,,,,,,,,,329.0360945,329.11615159999997,329.5492777000002,329.54931550000015,330.0484511000002,330.46535599999993,330.3330423,330.33306860000016,331.65070260000016,331.65070260000016,331.9176977999998,space,1,0.25132540000004155,None,,007,001,2023-11-12_14h10.18.277,untitled,2023.2.2,59.940754558161665,2023-11-12 14h10.28.769543 +0800,
8,condition_2/rightstar.PNG,space,,,,,,,,,,,,,0,14,14,6,331.9763485000001,,,,,,,,,,,,,,,,,,,,,,,,,,,,,,,,,,,,,,,,,,,,,,,,,,,,,,,,,,,,,,,,,,,,,,,,,,,,,,,,,,,,,,,,,,,,,,,,,,,,,,,,,,331.91887250000013,331.9763485000001,332.43245249999995,332.43249549999996,332.9321642000002,333.35335340000006,333.2164300000002,333.21646590000023,334.53408449999984,334.53408449999984,335.00118510000016,space,1,0.46099809999986974,None,,007,001,2023-11-12_14h10.18.277,untitled,2023.2.2,59.940754558161665,2023-11-12 14h10.28.769543 +0800,
1,condition_2/rightstar.PNG,right,,,,,,,,,,,,,0,15,15,12,335.0537832000002,,,,,,,,,,,,,,,,,,,,,,,,,,,,,,,,,,,,,,,,,,,,,,,,,,,,,,,,,,,,,,,,,,,,,,,,,,,,,,,,,,,,,,,,,,,,,,,,,,,,,,,,,,335.0025444999999,335.0537832000002,335.51644150000016,335.51648050000017,336.01514090000023,336.4279646000002,336.29946399999994,336.29949079999983,337.6172061,337.6172061,338.0173894000002,right,1,0.382781100000102,None,,007,001,2023-11-12_14h10.18.277,untitled,2023.2.2,59.940754558161665,2023-11-12 14h10.28.769543 +0800,
2,condition_2/leftstar.PNG,left,,,,,,,,,,,,,0,16,16,17,338.06935550000003,,,,,,,,,,,,,,,,,,,,,,,,,,,,,,,,,,,,,,,,,,,,,,,,,,,,,,,,,,,,,,,,,,,,,,,,,,,,,,,,,,,,,,,,,,,,,,,,,,,,,,,,,,338.0184892,338.06935550000003,338.5326213999999,338.5326459999999,339.03205820000017,339.4520485999999,339.31639100000007,339.3164162999999,340.63369130000024,340.63369130000024,341.1678224,left,1,0.5243368999999802,None,,007,001,2023-11-12_14h10.18.277,untitled,2023.2.2,59.940754558161665,2023-11-12 14h10.28.769543 +0800,
2,condition_2/leftstar.PNG,left,,,,,,,,,,,,,0,17,17,22,341.22270719999983,,,,,,,,,,,,,,,,,,,,,,,,,,,,,,,,,,,,,,,,,,,,,,,,,,,,,,,,,,,,,,,,,,,,,,,,,,,,,,,,,,,,,,,,,,,,,,,,,,,,,,,,,,341.1689336000002,341.22270719999983,341.6827839,341.6828065000002,342.18178220000004,342.6285826000001,342.46609079999985,342.4661173000002,343.7840066000001,343.7840066000001,344.15051659999995,left,1,0.3584102999998322,None,,007,001,2023-11-12_14h10.18.277,untitled,2023.2.2,59.940754558161665,2023-11-12 14h10.28.769543 +0800,
9,condition_2/rightstar.PNG,space,,,,,,,,,,,,,0,18,18,15,344.2090956999998,,,,,,,,,,,,,,,,,,,,,,,,,,,,,,,,,,,,,,,,,,,,,,,,,,,,,,,,,,,,,,,,,,,,,,,,,,,,,,,,,,,,,,,,,,,,,,,,,,,,,,,,,,344.15153179999993,344.2090956999998,344.6661096,344.6661510000001,345.1651559999998,345.57270300000005,345.4497963000001,345.4498304000001,346.76753459999986,346.76753459999986,347.0846896999999,space,1,0.3014367000000675,None,,007,001,2023-11-12_14h10.18.277,untitled,2023.2.2,59.940754558161665,2023-11-12 14h10.28.769543 +0800,
9,condition_2/leftstar.PNG,space,,,,,,,,,,,,,0,19,19,19,347.1357876999998,,,,,,,,,,,,,,,,,,,,,,,,,,,,,,,,,,,,,,,,,,,,,,,,,,,,,,,,,,,,,,,,,,,,,,,,,,,,,,,,,,,,,,,,,,,,,,,,,,,,,,,,,,347.0857696999999,347.1357876999998,347.59933590000014,347.59937560000003,348.0987255000002,348.4972519999999,348.3831579,348.3832463000001,349.7005305,349.7005305,350.26751149999996,space,1,0.5598487000002024,None,,007,001,2023-11-12_14h10.18.277,untitled,2023.2.2,59.940754558161665,2023-11-12 14h10.28.769543 +0800,
8,condition_2/blank.PNG,space,,,,,,,,,,,,,0,20,20,10,350.32365790000017,,,,,,,,,,,,,,,,,,,,,,,,,,,,,,,,,,,,,,,,,,,,,,,,,,,,,,,,,,,,,,,,,,,,,,,,,,,,,,,,,,,,,,,,,,,,,,,,,,,,,,,,,,350.2686667999999,350.32365790000017,350.7825610000002,350.7825882999998,351.28190870000003,351.69530869999994,351.56641220000006,351.5664411999999,352.88306750000015,352.88306750000015,353.86657690000015,space,1,0.9807135000000926,None,353.68178920000014,007,001,2023-11-12_14h10.18.277,untitled,2023.2.2,59.940754558161665,2023-11-12 14h10.28.769543 +0800,
8,condition_2/leftstar.PNG,space,,,,,,,,,,,,,0,21,21,2,353.9173352999999,,,,,,,,,,,,,,,,,,,,,,,,,,,,,,,,,,,,,,,,,,,,,,,,,,,,,,,,,,,,,,,,,,,,,,,,,,,,,,,,,,,,,,,,,,,,,,,,,,,,,,,,,,353.8676168999998,353.9173352999999,354.38242079999986,354.3824444999998,354.8817677999998,355.3885680000001,355.16639250000003,355.16642119999983,356.4840582999998,356.4840582999998,360.61661489999983,space,1,4.129744500000015,None,357.2985191,007,001,2023-11-12_14h10.18.277,untitled,2023.2.2,59.940754558161665,2023-11-12 14h10.28.769543 +0800,
2,condition_2/rightstar.PNG,left,,,,,,,,,,,,,0,22,22,5,360.6703143000002,,,,,,,,,,,,,,,,,,,,,,,,,,,,,,,,,,,,,,,,,,,,,,,,,,,,,,,,,,,,,,,,,,,,,,,,,,,,,,,,,,,,,,,,,,,,,,,,,,,,,,,,,,360.61769500000014,360.6703143000002,361.132981,361.1330197,361.63195040000005,362.05273580000016,361.91645129999984,361.91647990000024,363.2338379999999,363.2338379999999,363.8007172,right,0,0.5589411000000837,None,,007,001,2023-11-12_14h10.18.277,untitled,2023.2.2,59.940754558161665,2023-11-12 14h10.28.769543 +0800,
2,condition_2/rightstar.PNG,right,,,,,,,,,,,,,0,23,23,13,363.8859423000001,,,,,,,,,,,,,,,,,,,,,,,,,,,,,,,,,,,,,,,,,,,,,,,,,,,,,,,,,,,,,,,,,,,,,,,,,,,,,,,,,,,,,,,,,,,,,,,,,,,,,,,,,,363.8019061000002,363.8859423000001,364.3160432000002,364.3160820999999,364.81527100000017,365.2334288999998,365.0994938000001,365.0995196000001,366.41709049999986,366.41709049999986,366.83392990000016,right,1,0.4092160000000149,None,,007,001,2023-11-12_14h10.18.277,untitled,2023.2.2,59.940754558161665,2023-11-12 14h10.28.769543 +0800,
9,condition_2/rightstar.PNG,space,,,,,,,,,,,,,0,24,24,7,366.88509279999994,,,,,,,,,,,,,,,,,,,,,,,,,,,,,,,,,,,,,,,,,,,,,,,,,,,,,,,,,,,,,,,,,,,,,,,,,,,,,,,,,,,,,,,,,,,,,,,,,,,,,,,,,,366.8350032999999,366.88509279999994,367.3493028999999,367.3493473000001,367.84842390000017,368.25876619999985,368.1331931000002,368.1332525,369.45085300000005,369.45085300000005,369.8508672999999,space,1,0.3877346000003854,None,,007,001,2023-11-12_14h10.18.277,untitled,2023.2.2,59.940754558161665,2023-11-12 14h10.28.769543 +0800,
2,condition_2/blank.PNG,space,,,,,,,,,,,,,1,0,25,9,369.91365169999995,,,,,,,,,,,,,,,,,,,,,,,,,,,,,,,,,,,,,,,,,,,,,,,,,,,,,,,,,,,,,,,,,,,,,,,,,,,,,,,,,,,,,,,,,,,,,,,,,,,,,,,,,,369.8519560000002,369.91365169999995,370.3660215000002,370.36606640000014,370.8651345999999,371.2781689000001,371.14991239999995,371.1499503000002,372.46641810000006,372.46641810000006,373.83326009999996,space,1,1.3512438000002476,None,373.26498240000024,007,001,2023-11-12_14h10.18.277,untitled,2023.2.2,59.940754558161665,2023-11-12 14h10.28.769543 +0800,
9,condition_2/rightstar.PNG,space,,,,,,,,,,,,,1,1,26,7,373.8988522000002,,,,,,,,,,,,,,,,,,,,,,,,,,,,,,,,,,,,,,,,,,,,,,,,,,,,,,,,,,,,,,,,,,,,,,,,,,,,,,,,,,,,,,,,,,,,,,,,,,,,,,,,,,373.83435220000024,373.8988522000002,374.3495654000001,374.3496112,374.8486018000001,375.3575907000002,375.1332054000002,375.1332325000001,376.45087290000015,376.45087290000015,376.7340449000001,space,1,0.2783683000002384,None,,007,001,2023-11-12_14h10.18.277,untitled,2023.2.2,59.940754558161665,2023-11-12 14h10.28.769543 +0800,
1,condition_2/leftstar.PNG,left,,,,,,,,,,,,,1,2,27,16,376.7919866999998,,,,,,,,,,,,,,,,,,,,,,,,,,,,,,,,,,,,,,,,,,,,,,,,,,,,,,,,,,,,,,,,,,,,,,,,,,,,,,,,,,,,,,,,,,,,,,,,,,,,,,,,,,376.7351037000001,376.7919866999998,377.2492278000002,377.2492543000001,377.7486612,378.1705006999998,378.03282049999984,378.03284770000005,379.35076559999993,379.35076559999993,379.86793060000014,left,1,0.5083755000000565,None,,007,001,2023-11-12_14h10.18.277,untitled,2023.2.2,59.940754558161665,2023-11-12 14h10.28.769543 +0800,
8,condition_2/leftstar.PNG,space,,,,,,,,,,,,,1,3,28,18,379.9177492000001,,,,,,,,,,,,,,,,,,,,,,,,,,,,,,,,,,,,,,,,,,,,,,,,,,,,,,,,,,,,,,,,,,,,,,,,,,,,,,,,,,,,,,,,,,,,,,,,,,,,,,,,,,379.86945619999983,379.9177492000001,380.38260220000006,380.3826425,380.8822071000002,381.30063369999993,381.1661461000001,381.16617500000007,382.48405389999994,382.48405389999994,383.0007796000002,space,1,0.5145378000001983,None,,007,001,2023-11-12_14h10.18.277,untitled,2023.2.2,59.940754558161665,2023-11-12 14h10.28.769543 +0800,
1,condition_2/leftstar.PNG,left,,,,,,,,,,,,,1,4,29,0,383.07321190000016,,,,,,,,,,,,,,,,,,,,,,,,,,,,,,,,,,,,,,,,,,,,,,,,,,,,,,,,,,,,,,,,,,,,,,,,,,,,,,,,,,,,,,,,,,,,,,,,,,,,,,,,,,383.00187789999995,383.07321190000016,383.5158299000002,383.5158560000002,384.0152469000002,384.41914299999985,384.30007679999994,384.30014989999995,385.6172061,385.6172061,386.03576009999983,left,1,0.4126900999999634,None,,007,001,2023-11-12_14h10.18.277,untitled,2023.2.2,59.940754558161665,2023-11-12 14h10.28.769543 +0800,
9,condition_2/leftstar.PNG,space,,,,,,,,,,,,,1,5,30,3,386.09223739999993,,,,,,,,,,,,,,,,,,,,,,,,,,,,,,,,,,,,,,,,,,,,,,,,,,,,,,,,,,,,,,,,,,,,,,,,,,,,,,,,,,,,,,,,,,,,,,,,,,,,,,,,,,386.0374706,386.09223739999993,386.5495219000002,386.54954939999993,387.04862419999995,387.46834379999996,387.33243830000015,387.33246540000005,388.6505359999999,388.6505359999999,389.25062120000007,space,1,0.5931674000003113,None,,007,001,2023-11-12_14h10.18.277,untitled,2023.2.2,59.940754558161665,2023-11-12 14h10.28.769543 +0800,
2,condition_2/rightstar.PNG,right,,,,,,,,,,,,,1,6,31,13,389.2998408000001,,,,,,,,,,,,,,,,,,,,,,,,,,,,,,,,,,,,,,,,,,,,,,,,,,,,,,,,,,,,,,,,,,,,,,,,,,,,,,,,,,,,,,,,,,,,,,,,,,,,,,,,,,389.2517298,389.2998408000001,389.7661378,389.7661651000001,390.26517609999996,390.6635739999999,390.54914010000016,390.5491672999999,391.8671566999999,391.8671566999999,392.3345520999999,right,1,0.4534817000003386,None,,007,001,2023-11-12_14h10.18.277,untitled,2023.2.2,59.940754558161665,2023-11-12 14h10.28.769543 +0800,
8,condition_2/rightstar.PNG,space,,,,,,,,,,,,,1,7,32,6,392.39184339999997,,,,,,,,,,,,,,,,,,,,,,,,,,,,,,,,,,,,,,,,,,,,,,,,,,,,,,,,,,,,,,,,,,,,,,,,,,,,,,,,,,,,,,,,,,,,,,,,,,,,,,,,,,392.33567070000004,392.39184339999997,392.8495795000001,392.8496312999998,393.34853709999993,393.7468412999999,393.63341130000003,393.63345159999994,394.9506487000001,394.9506487000001,395.2334241000001,space,1,0.2653912999999193,None,,007,001,2023-11-12_14h10.18.277,untitled,2023.2.2,59.940754558161665,2023-11-12 14h10.28.769543 +0800,
2,condition_2/rightstar.PNG,left,,,,,,,,,,,,,1,8,33,5,395.2820181999998,,,,,,,,,,,,,,,,,,,,,,,,,,,,,,,,,,,,,,,,,,,,,,,,,,,,,,,,,,,,,,,,,,,,,,,,,,,,,,,,,,,,,,,,,,,,,,,,,,,,,,,,,,395.23433180000006,395.2820181999998,395.74941749999994,395.7494571,396.2483851999998,396.6540143,396.5329542000002,396.5329816000001,397.8506610000002,397.8506610000002,398.2837127999999,right,0,0.42528379999976096,None,,007,001,2023-11-12_14h10.18.277,untitled,2023.2.2,59.940754558161665,2023-11-12 14h10.28.769543 +0800,
2,condition_2/blank.PNG,space,,,,,,,,,,,,,1,9,34,20,398.3318508,,,,,,,,,,,,,,,,,,,,,,,,,,,,,,,,,,,,,,,,,,,,,,,,,,,,,,,,,,,,,,,,,,,,,,,,,,,,,,,,,,,,,,,,,,,,,,,,,,,,,,,,,,398.28450899999984,398.3318508,398.7992308999999,398.7992577000002,399.2984831000001,399.7184573000002,399.5831003999999,399.58316089999994,400.9001808999999,400.9001808999999,401.6834640999998,space,1,0.7692804999996952,None,,007,001,2023-11-12_14h10.18.277,untitled,2023.2.2,59.940754558161665,2023-11-12 14h10.28.769543 +0800,
1,condition_2/rightstar.PNG,right,,,,,,,,,,,,,1,10,35,4,401.72936860000004,,,,,,,,,,,,,,,,,,,,,,,,,,,,,,,,,,,,,,,,,,,,,,,,,,,,,,,,,,,,,,,,,,,,,,,,,,,,,,,,,,,,,,,,,,,,,,,,,,,,,,,,,,401.68423180000013,401.72936860000004,402.1994308999999,402.1994563999999,402.6985695999999,403.20789320000017,402.9828921000001,402.98292030000016,404.30056070000023,404.30056070000023,404.8352643999999,right,1,0.5304160000000593,None,,007,001,2023-11-12_14h10.18.277,untitled,2023.2.2,59.940754558161665,2023-11-12 14h10.28.769543 +0800,
9,condition_2/leftstar.PNG,space,,,,,,,,,,,,,1,11,36,24,404.8847038000001,,,,,,,,,,,,,,,,,,,,,,,,,,,,,,,,,,,,,,,,,,,,,,,,,,,,,,,,,,,,,,,,,,,,,,,,,,,,,,,,,,,,,,,,,,,,,,,,,,,,,,,,,,404.8363265999999,404.8847038000001,405.3496008999998,405.34963440000024,405.84849770000005,406.2466775999999,406.1329459000001,406.13297149999994,407.4507344000001,407.4507344000001,408.01732800000013,space,1,0.5555422000002181,None,,007,001,2023-11-12_14h10.18.277,untitled,2023.2.2,59.940754558161665,2023-11-12 14h10.28.769543 +0800,
2,condition_2/leftstar.PNG,left,,,,,,,,,,,,,1,12,37,1,408.0786612999998,,,,,,,,,,,,,,,,,,,,,,,,,,,,,,,,,,,,,,,,,,,,,,,,,,,,,,,,,,,,,,,,,,,,,,,,,,,,,,,,,,,,,,,,,,,,,,,,,,,,,,,,,,408.01844189999997,408.0786612999998,408.53263390000006,408.53265940000006,409.03198739999993,409.43664060000015,409.3167707,409.3167993999998,410.63396769999986,410.63396769999986,411.0340042,left,1,0.3962427999999818,None,,007,001,2023-11-12_14h10.18.277,untitled,2023.2.2,59.940754558161665,2023-11-12 14h10.28.769543 +0800,
8,condition_2/leftstar.PNG,space,,,,,,,,,,,,,1,13,38,2,411.0997527000002,,,,,,,,,,,,,,,,,,,,,,,,,,,,,,,,,,,,,,,,,,,,,,,,,,,,,,,,,,,,,,,,,,,,,,,,,,,,,,,,,,,,,,,,,,,,,,,,,,,,,,,,,,411.0352024000001,411.0997527000002,411.5495481999999,411.5496006999999,412.0488278999999,412.4863152999999,412.33320160000017,412.33323989999985,413.6509002,413.6509002,413.93438900000024,space,1,0.2694943000001331,None,,007,001,2023-11-12_14h10.18.277,untitled,2023.2.2,59.940754558161665,2023-11-12 14h10.28.769543 +0800,
8,condition_2/rightstar.PNG,space,,,,,,,,,,,,,1,14,39,23,413.9974977999998,,,,,,,,,,,,,,,,,,,,,,,,,,,,,,,,,,,,,,,,,,,,,,,,,,,,,,,,,,,,,,,,,,,,,,,,,,,,,,,,,,,,,,,,,,,,,,,,,,,,,,,,,,413.93561350000004,413.9974977999998,414.4499027999998,414.4499285999998,414.9487735,415.3878499,415.23289180000006,415.2329189999998,416.55069500000013,416.55069500000013,416.8844849999998,space,1,0.32002280000006067,None,,007,001,2023-11-12_14h10.18.277,untitled,2023.2.2,59.940754558161665,2023-11-12 14h10.28.769543 +0800,
2,condition_2/leftstar.PNG,left,,,,,,,,,,,,,1,15,40,17,416.93959100000006,,,,,,,,,,,,,,,,,,,,,,,,,,,,,,,,,,,,,,,,,,,,,,,,,,,,,,,,,,,,,,,,,,,,,,,,,,,,,,,,,,,,,,,,,,,,,,,,,,,,,,,,,,416.8856076999998,416.93959100000006,417.3993177,417.3993429999998,417.89857559999996,418.3113337000002,418.1827599999999,418.1827876,419.50053779999985,419.50053779999985,419.96675470000014,left,1,0.4582553000000189,None,,007,001,2023-11-12_14h10.18.277,untitled,2023.2.2,59.940754558161665,2023-11-12 14h10.28.769543 +0800,
1,condition_2/rightstar.PNG,right,,,,,,,,,,,,,1,16,41,12,420.0119575000001,,,,,,,,,,,,,,,,,,,,,,,,,,,,,,,,,,,,,,,,,,,,,,,,,,,,,,,,,,,,,,,,,,,,,,,,,,,,,,,,,,,,,,,,,,,,,,,,,,,,,,,,,,419.96725549999996,420.0119575000001,420.48248880000006,420.4825349,420.98180320000006,421.37909890000014,421.2667256000002,421.2667826999998,422.5841498000002,422.5841498000002,422.91827530000023,right,1,0.331544500000291,None,,007,001,2023-11-12_14h10.18.277,untitled,2023.2.2,59.940754558161665,2023-11-12 14h10.28.769543 +0800,
1,condition_2/rightstar.PNG,right,,,,,,,,,,,,,1,17,42,21,422.9715024999998,,,,,,,,,,,,,,,,,,,,,,,,,,,,,,,,,,,,,,,,,,,,,,,,,,,,,,,,,,,,,,,,,,,,,,,,,,,,,,,,,,,,,,,,,,,,,,,,,,,,,,,,,,422.91938129999994,422.9715024999998,423.4326466,423.4326930999998,423.9316848000001,424.3249151000002,424.2153117999999,424.21532760000014,425.5339184000002,425.5339184000002,425.91704000000004,right,1,0.36661259999982576,None,,007,001,2023-11-12_14h10.18.277,untitled,2023.2.2,59.940754558161665,2023-11-12 14h10.28.769543 +0800,
1,condition_2/blank.PNG,space,,,,,,,,,,,,,1,18,43,8,425.9808418,,,,,,,,,,,,,,,,,,,,,,,,,,,,,,,,,,,,,,,,,,,,,,,,,,,,,,,,,,,,,,,,,,,,,,,,,,,,,,,,,,,,,,,,,,,,,,,,,,,,,,,,,,425.91815199999996,425.9808418,426.4325483,426.43257500000004,426.931996,427.34323310000013,427.2159944000002,427.21602229999985,428.53298259999997,428.53298259999997,429.5163983,space,1,0.9803713999999673,None,429.33171789999983,007,001,2023-11-12_14h10.18.277,untitled,2023.2.2,59.940754558161665,2023-11-12 14h10.28.769543 +0800,
9,condition_2/blank.PNG,space,,,,,,,,,,,,,1,19,44,11,429.56913469999995,,,,,,,,,,,,,,,,,,,,,,,,,,,,,,,,,,,,,,,,,,,,,,,,,,,,,,,,,,,,,,,,,,,,,,,,,,,,,,,,,,,,,,,,,,,,,,,,,,,,,,,,,,429.5173682000002,429.56913469999995,430.0326871,430.03271070000005,430.53166050000004,430.8527888000001,430.8162358000002,430.8162743999999,432.1329420999998,432.1329420999998,432.73391240000024,space,1,0.5898938000000271,None,,007,001,2023-11-12_14h10.18.277,untitled,2023.2.2,59.940754558161665,2023-11-12 14h10.28.769543 +0800,
8,condition_2/blank.PNG,space,,,,,,,,,,,,,1,20,45,10,432.7858738000002,,,,,,,,,,,,,,,,,,,,,,,,,,,,,,,,,,,,,,,,,,,,,,,,,,,,,,,,,,,,,,,,,,,,,,,,,,,,,,,,,,,,,,,,,,,,,,,,,,,,,,,,,,432.7349978,432.7858738000002,433.2493562000002,433.2493839000001,433.7484665999998,434.0714624999998,434.0327294000001,434.0327565,435.3499905000001,435.3499905000001,436.1002796999999,space,1,0.7429095000002235,None,,007,001,2023-11-12_14h10.18.277,untitled,2023.2.2,59.940754558161665,2023-11-12 14h10.28.769543 +0800,
2,condition_2/leftstar.PNG,left,,,,,,,,,,,,,1,21,46,22,436.1587151000001,,,,,,,,,,,,,,,,,,,,,,,,,,,,,,,,,,,,,,,,,,,,,,,,,,,,,,,,,,,,,,,,,,,,,,,,,,,,,,,,,,,,,,,,,,,,,,,,,,,,,,,,,,436.10088599999995,436.1587151000001,436.6156972000001,436.61571260000005,437.1150134000002,437.71186939999984,437.3990099,437.3990252000001,438.7171697000001,438.7171697000001,439.0831351999998,left,1,0.3570445000000291,None,,007,001,2023-11-12_14h10.18.277,untitled,2023.2.2,59.940754558161665,2023-11-12 14h10.28.769543 +0800,
8,condition_2/rightstar.PNG,space,,,,,,,,,,,,,1,22,47,14,439.1349487,,,,,,,,,,,,,,,,,,,,,,,,,,,,,,,,,,,,,,,,,,,,,,,,,,,,,,,,,,,,,,,,,,,,,,,,,,,,,,,,,,,,,,,,,,,,,,,,,,,,,,,,,,439.0836763,439.1349487,439.5994075000001,439.59943240000007,440.09829000000013,440.5085114000001,440.3825721999999,440.3825992999998,441.7005443999999,441.7005443999999,441.9508653999999,space,1,0.24074100000007093,None,,007,001,2023-11-12_14h10.18.277,untitled,2023.2.2,59.940754558161665,2023-11-12 14h10.28.769543 +0800,
9,condition_2/leftstar.PNG,space,,,,,,,,,,,,,1,23,48,19,442.00384439999993,,,,,,,,,,,,,,,,,,,,,,,,,,,,,,,,,,,,,,,,,,,,,,,,,,,,,,,,,,,,,,,,,,,,,,,,,,,,,,,,,,,,,,,,,,,,,,,,,,,,,,,,,,441.95195820000004,442.00384439999993,442.4663028000002,442.46633559999987,442.96547570000007,443.3631416999999,443.2499220000002,443.2499495999998,444.5674158999998,444.5674158999998,445.1676540000001,space,1,0.5941537000003336,None,,007,001,2023-11-12_14h10.18.277,untitled,2023.2.2,59.940754558161665,2023-11-12 14h10.28.769543 +0800,
9,condition_2/rightstar.PNG,space,,,,,,,,,,,,,1,24,49,15,445.2196975999998,,,,,,,,,,,,,,,,,,,,,,,,,,,,,,,,,,,,,,,,,,,,,,,,,,,,,,,,,,,,,,,,,,,,,,,,,,,,,,,,,,,,,,,,,,,,,,,,,,,,,,,,,,445.16874540000003,445.2196975999998,445.6824626,445.68248960000005,446.1820438000002,446.5840614000001,446.4660213999998,446.4660491000002,447.7838027999999,447.7838027999999,448.05057180000017,space,1,0.2644463999999971,None,,007,001,2023-11-12_14h10.18.277,untitled,2023.2.2,59.940754558161665,2023-11-12 14h10.28.769543 +0800,
