stimuli,star,CorrectAns,trials_3.thisRepN,trials_3.thisTrialN,trials_3.thisN,trials_3.thisIndex,trials.thisRepN,trials.thisTrialN,trials.thisN,trials.thisIndex,trials_4.thisRepN,trials_4.thisTrialN,trials_4.thisN,trials_4.thisIndex,trials_2.thisRepN,trials_2.thisTrialN,trials_2.thisN,trials_2.thisIndex,thisRow.t,notes,routine_21.started,text_9.started,key_resp_8.started,routine_21.stopped,key_resp_8.keys,key_resp_8.rt,key_resp_8.duration,introduction.started,text_6.started,key_resp_5.started,introduction.stopped,key_resp_5.keys,key_resp_5.rt,key_resp_5.duration,routine_14.started,image_6.started,routine_14.stopped,routine_16.started,text_4.started,text_4.stopped,routine_16.stopped,routine_17.started,image_7.started,key_resp_3.started,routine_17.stopped,key_resp_3.keys,key_resp_3.rt,key_resp_3.duration,image_7.stopped,routine_20.started,text_8.started,key_resp_7.started,routine_20.stopped,key_resp_7.keys,key_resp_7.rt,key_resp_7.duration,routine_18.started,text_5.started,key_resp_4.started,routine_18.stopped,key_resp_4.keys,key_resp_4.rt,key_resp_4.duration,trial.started,image_3.started,trial.stopped,routine.started,text_3.started,routine.stopped,routine_1.started,image_2.started,key_resp.started,routine_1.stopped,key_resp.keys,key_resp.corr,key_resp.rt,key_resp.duration,text_3.stopped,image_2.stopped,routine_22.started,text_10.started,key_resp_9.started,routine_22.stopped,key_resp_9.keys,key_resp_9.rt,key_resp_9.duration,routine_19.started,text_7.started,key_resp_6.started,routine_19.stopped,key_resp_6.keys,key_resp_6.rt,key_resp_6.duration,routine_23.started,image_8.started,routine_23.stopped,routine_24.started,text_11.started,text_11.stopped,routine_24.stopped,routine_25.started,image_9.started,key_resp_10.started,routine_25.stopped,key_resp_10.keys,key_resp_10.rt,key_resp_10.duration,routine_26.started,text_12.started,key_resp_11.started,text_12.stopped,routine_26.stopped,key_resp_11.keys,key_resp_11.rt,key_resp_11.duration,routine_27.started,text_13.started,key_resp_12.started,text_13.stopped,routine_27.stopped,key_resp_12.keys,key_resp_12.rt,key_resp_12.duration,routine_10.started,image_4.started,routine_10.stopped,routine_11.started,text.started,text.stopped,routine_11.stopped,routine_12.started,image_5.started,key_resp_2.started,routine_12.stopped,key_resp_2.keys,key_resp_2.corr,key_resp_2.rt,key_resp_2.duration,image_5.stopped,participant,session,date,expName,psychopyVersion,frameRate,expStart,
,,,,,,,,,,,,,,,,,,,,,0.012339800000063406,0.01964029999999184,0.01964029999999184,8.276088499999787,space,8.251702900000055,None,,,,,,,,,,,,,,,,,,,,,,,,,,,,,,,,,,,,,,,,,,,,,,,,,,,,,,,,,,,,,,,,,,,,,,,,,,,,,,,,,,,,,,,,,,,,,,,,,,,,,,,,,,,,,,,,,007,001,2023-11-11_13h59.12.795,untitled,2023.2.3,299.1808428503304,2023-11-11 13h59.27.857571 +0800,
,,,,,,,,,,,,,,,,,,,,,,,,,,,,8.276109399999768,8.279609700000037,8.279609700000037,41.24927399999979,space,32.9628488000003,None,,,,,,,,,,,,,,,,,,,,,,,,,,,,,,,,,,,,,,,,,,,,,,,,,,,,,,,,,,,,,,,,,,,,,,,,,,,,,,,,,,,,,,,,,,,,,,,,,,,,,,,,,,007,001,2023-11-11_13h59.12.795,untitled,2023.2.3,299.1808428503304,2023-11-11 13h59.27.857571 +0800,
9,test/rightstar.PNG,right,0,0,0,3,,,,,,,,,,,,,41.3369846999999,,,,,,,,,,,,,,,,41.25425189999987,41.3369846999999,41.7522184999998,41.75222829999984,42.24886090000018,42.746003799999926,42.54553140000007,42.54554180000014,43.88757050000004,43.88757050000004,44.66690689999996,right,0.7754451000000699,None,,,,,,,,,,,,,,,,,,,,,,,,,,,,,,,,,,,,,,,,,,,,,,,,,,,,,,,,,,,,,,,,,,,,,,,,,,,,,,,,,,,,,,,,,,,,007,001,2023-11-11_13h59.12.795,untitled,2023.2.3,299.1808428503304,2023-11-11 13h59.27.857571 +0800,
8,test/rightstar.PNG,right,0,1,1,1,,,,,,,,,,,,,44.8543295999998,,,,,,,,,,,,,,,,44.667407699999785,44.8543295999998,45.16867890000003,45.168688400000065,45.668406499999946,46.139191499999924,45.96561620000011,45.96562630000017,47.278463399999964,47.278463399999964,47.67630650000001,right,0.39379220000000714,None,,,,,,,,,,,,,,,,,,,,,,,,,,,,,,,,,,,,,,,,,,,,,,,,,,,,,,,,,,,,,,,,,,,,,,,,,,,,,,,,,,,,,,,,,,,,007,001,2023-11-11_13h59.12.795,untitled,2023.2.3,299.1808428503304,2023-11-11 13h59.27.857571 +0800,
1,test/leftstar.PNG,space,0,2,2,0,,,,,,,,,,,,,47.75360039999987,,,,,,,,,,,,,,,,47.67664070000001,47.75360039999987,48.179044800000156,48.17905449999989,48.67873529999997,49.14927129999978,48.97547429999986,48.975484699999924,50.287490499999876,50.287490499999876,51.17269699999997,space,0.8844806000001881,None,51.08883530000003,,,,,,,,,,,,,,,,,,,,,,,,,,,,,,,,,,,,,,,,,,,,,,,,,,,,,,,,,,,,,,,,,,,,,,,,,,,,,,,,,,,,,,,,,,,007,001,2023-11-11_13h59.12.795,untitled,2023.2.3,299.1808428503304,2023-11-11 13h59.27.857571 +0800,
8,test/leftstar.PNG,left,0,3,3,5,,,,,,,,,,,,,51.25295219999998,,,,,,,,,,,,,,,,51.17308920000005,51.25295219999998,51.67580670000007,51.67581659999996,52.17530420000003,52.63259100000005,52.47214729999996,52.472157100000004,53.78411419999975,53.78411419999975,54.23937569999998,left,0.450733499999842,None,,,,,,,,,,,,,,,,,,,,,,,,,,,,,,,,,,,,,,,,,,,,,,,,,,,,,,,,,,,,,,,,,,,,,,,,,,,,,,,,,,,,,,,,,,,,007,001,2023-11-11_13h59.12.795,untitled,2023.2.3,299.1808428503304,2023-11-11 13h59.27.857571 +0800,
1,test/blank.PNG,space,0,4,4,2,,,,,,,,,,,,,54.319550300000174,,,,,,,,,,,,,,,,54.23968879999984,54.319550300000174,54.741961600000195,54.74197060000006,55.24162609999985,55.57428609999988,55.53880769999978,55.53881880000017,56.949582400000054,56.949582400000054,57.71250329999975,space,0.7619368000000577,None,,,,,,,,,,,,,,,,,,,,,,,,,,,,,,,,,,,,,,,,,,,,,,,,,,,,,,,,,,,,,,,,,,,,,,,,,,,,,,,,,,,,,,,,,,,,007,001,2023-11-11_13h59.12.795,untitled,2023.2.3,299.1808428503304,2023-11-11 13h59.27.857571 +0800,
2,test/leftstar.PNG,space,0,5,5,4,,,,,,,,,,,,,57.780965599999945,,,,,,,,,,,,,,,,57.712828400000035,57.780965599999945,58.21547379999993,58.215482300000076,58.712182499999926,59.176084400000036,59.00878490000014,59.00879450000002,60.35682429999997,60.35682429999997,66.78929419999986,space,6.428621600000042,None,61.158679199999824,,,,,,,,,,,,,,,,,,,,,,,,,,,,,,,,,,,,,,,,,,,,,,,,,,,,,,,,,,,,,,,,,,,,,,,,,,,,,,,,,,,,,,,,,,,007,001,2023-11-11_13h59.12.795,untitled,2023.2.3,299.1808428503304,2023-11-11 13h59.27.857571 +0800,
,,,,,,,,,,,,,,,,,,,,,,,,,,,,,,,,,,,,,,,,,,,,,,,,,,66.78954029999977,66.79291379999995,66.79291379999995,80.1096306999998,space,13.310145100000227,None,,,,,,,,,,,,,,,,,,,,,,,,,,,,,,,,,,,,,,,,,,,,,,,,,,,,,,,,,,,,,,,,,,,,,,,,,,,,,,,,,,,,007,001,2023-11-11_13h59.12.795,untitled,2023.2.3,299.1808428503304,2023-11-11 13h59.27.857571 +0800,
,,,,,,,,,,,,,,,,,,,,,,,,,,,,,,,,,,,,,,,,,,,,,,,,,,,,,,,,,80.10965679999981,80.11306319999994,80.11306319999994,86.77309370000012,space,6.656362300000183,None,,,,,,,,,,,,,,,,,,,,,,,,,,,,,,,,,,,,,,,,,,,,,,,,,,,,,,,,,,,,,,,,,,,,,,,,,,,,,007,001,2023-11-11_13h59.12.795,untitled,2023.2.3,299.1808428503304,2023-11-11 13h59.27.857571 +0800,
1,condition_1/rightstar.PNG,space,,,,,0,0,0,12,,,,,,,,,86.86637889999975,,,,,,,,,,,,,,,,,,,,,,,,,,,,,,,,,,,,,,,,,,,,,86.77838770000017,86.86637889999975,87.2757603,87.27577079999992,87.77548380000007,88.0755294999999,88.07554040000014,89.39257120000002,89.39257120000002,89.91936940000005,space,1,0.5244974000002003,None,,,,,,,,,,,,,,,,,,,,,,,,,,,,,,,,,,,,,,,,,,,,,,,,,,,,,,,,,,,,,,,007,001,2023-11-11_13h59.12.795,untitled,2023.2.3,299.1808428503304,2023-11-11 13h59.27.857571 +0800,
9,condition_1/blank.PNG,space,,,,,0,1,1,11,,,,,,,,,89.99792200000002,,,,,,,,,,,,,,,,,,,,,,,,,,,,,,,,,,,,,,,,,,,,,89.91987569999992,89.99792200000002,90.42190089999986,90.42191120000007,90.9219250000001,91.21906799999988,91.21907729999975,92.61613679999982,92.61613679999982,94.51911500000006,space,1,1.9018105999998625,None,91.25769249999985,93.41535199999998,,,,,,,,,,,,,,,,,,,,,,,,,,,,,,,,,,,,,,,,,,,,,,,,,,,,,,,,,,,,,007,001,2023-11-11_13h59.12.795,untitled,2023.2.3,299.1808428503304,2023-11-11 13h59.27.857571 +0800,
9,condition_1/rightstar.PNG,right,,,,,0,2,2,7,,,,,,,,,94.59299150000015,,,,,,,,,,,,,,,,,,,,,,,,,,,,,,,,,,,,,,,,,,,,,94.51951079999981,94.59299150000015,95.02189550000003,95.02190569999993,95.51879809999991,95.81552019999981,95.81553040000017,97.1687151000001,97.1687151000001,97.58228770000005,right,1,0.4122602999996161,None,95.97960449999982,,,,,,,,,,,,,,,,,,,,,,,,,,,,,,,,,,,,,,,,,,,,,,,,,,,,,,,,,,,,,,007,001,2023-11-11_13h59.12.795,untitled,2023.2.3,299.1808428503304,2023-11-11 13h59.27.857571 +0800,
2,condition_1/rightstar.PNG,space,,,,,0,3,3,21,,,,,,,,,97.66642950000005,,,,,,,,,,,,,,,,,,,,,,,,,,,,,,,,,,,,,,,,,,,,,97.58271289999993,97.66642950000005,98.08523860000014,98.0852476,98.5816361000002,98.87869959999989,98.8787084999999,100.19035040000017,100.19035040000017,100.96939810000003,space,1,0.7775644999996985,None,99.03946499999984,,,,,,,,,,,,,,,,,,,,,,,,,,,,,,,,,,,,,,,,,,,,,,,,,,,,,,,,,,,,,,007,001,2023-11-11_13h59.12.795,untitled,2023.2.3,299.1808428503304,2023-11-11 13h59.27.857571 +0800,
8,condition_1/leftstar.PNG,left,,,,,0,4,4,2,,,,,,,,,101.0500062000001,,,,,,,,,,,,,,,,,,,,,,,,,,,,,,,,,,,,,,,,,,,,,100.96977430000015,101.0500062000001,101.4718426999998,101.47185300000001,101.97531419999996,102.27193080000006,102.27194159999999,103.57940069999995,103.57940069999995,104.11620439999979,left,1,0.5319727999999486,None,,,,,,,,,,,,,,,,,,,,,,,,,,,,,,,,,,,,,,,,,,,,,,,,,,,,,,,,,,,,,,,007,001,2023-11-11_13h59.12.795,untitled,2023.2.3,299.1808428503304,2023-11-11 13h59.27.857571 +0800,
2,condition_1/rightstar.PNG,space,,,,,0,5,5,5,,,,,,,,,104.19961839999996,,,,,,,,,,,,,,,,,,,,,,,,,,,,,,,,,,,,,,,,,,,,,104.1165904999998,104.19961839999996,104.61838660000012,104.61839719999989,105.11935589999985,105.42794330000015,105.42801220000001,106.72650139999996,106.72650139999996,107.34590829999979,right,0,0.6146002000000408,None,,,,,,,,,,,,,,,,,,,,,,,,,,,,,,,,,,,,,,,,,,,,,,,,,,,,,,,,,,,,,,,007,001,2023-11-11_13h59.12.795,untitled,2023.2.3,299.1808428503304,2023-11-11 13h59.27.857571 +0800,
1,condition_1/leftstar.PNG,space,,,,,0,6,6,0,,,,,,,,,107.4224333000002,,,,,,,,,,,,,,,,,,,,,,,,,,,,,,,,,,,,,,,,,,,,,107.34626459999981,107.4224333000002,107.84871759999987,107.84872790000009,108.3452957999998,108.64219109999976,108.64220049999994,109.95296849999977,109.95296849999977,110.66947930000015,space,1,0.714995799999997,None,108.80609709999999,,,,,,,,,,,,,,,,,,,,,,,,,,,,,,,,,,,,,,,,,,,,,,,,,,,,,,,,,,,,,,007,001,2023-11-11_13h59.12.795,untitled,2023.2.3,299.1808428503304,2023-11-11 13h59.27.857571 +0800,
1,condition_1/leftstar.PNG,space,,,,,0,7,7,22,,,,,,,,,110.76599799999985,,,,,,,,,,,,,,,,,,,,,,,,,,,,,,,,,,,,,,,,,,,,,110.66985250000016,110.76599799999985,111.17203149999978,111.17204159999983,111.6716962999999,111.97202809999999,111.97203760000002,113.2815329,113.2815329,114.41931690000001,space,1,1.1324761000000763,None,,114.09540229999993,,,,,,,,,,,,,,,,,,,,,,,,,,,,,,,,,,,,,,,,,,,,,,,,,,,,,,,,,,,,,007,001,2023-11-11_13h59.12.795,untitled,2023.2.3,299.1808428503304,2023-11-11 13h59.27.857571 +0800,
2,condition_1/rightstar.PNG,space,,,,,0,8,8,13,,,,,,,,,114.49218119999978,,,,,,,,,,,,,,,,,,,,,,,,,,,,,,,,,,,,,,,,,,,,,114.41971169999988,114.49218119999978,114.92190440000013,114.92191460000004,115.42194590000008,115.72221549999995,115.72222509999983,117.02926479999996,117.02926479999996,117.65222099999983,space,1,0.6222141999996893,None,,,,,,,,,,,,,,,,,,,,,,,,,,,,,,,,,,,,,,,,,,,,,,,,,,,,,,,,,,,,,,,007,001,2023-11-11_13h59.12.795,untitled,2023.2.3,299.1808428503304,2023-11-11 13h59.27.857571 +0800,
1,condition_1/blank.PNG,space,,,,,0,9,9,8,,,,,,,,,117.72567709999976,,,,,,,,,,,,,,,,,,,,,,,,,,,,,,,,,,,,,,,,,,,,,117.65261250000003,117.72567709999976,118.15554259999999,118.15555349999977,118.6520415,118.94883040000013,118.94884079999974,120.33556850000014,120.33556850000014,121.23581980000017,space,1,0.8947685000002821,None,118.98611309999978,121.1352667000001,,,,,,,,,,,,,,,,,,,,,,,,,,,,,,,,,,,,,,,,,,,,,,,,,,,,,,,,,,,,,007,001,2023-11-11_13h59.12.795,untitled,2023.2.3,299.1808428503304,2023-11-11 13h59.27.857571 +0800,
2,condition_1/leftstar.PNG,space,,,,,0,10,10,17,,,,,,,,,121.30538739999974,,,,,,,,,,,,,,,,,,,,,,,,,,,,,,,,,,,,,,,,,,,,,121.2361933000002,121.30538739999974,121.73905150000019,121.73906279999983,122.23491419999982,122.54926169999999,122.54927199999975,123.88265279999996,123.88265279999996,124.25957620000008,space,1,0.3692611000001307,None,,,,,,,,,,,,,,,,,,,,,,,,,,,,,,,,,,,,,,,,,,,,,,,,,,,,,,,,,,,,,,,007,001,2023-11-11_13h59.12.795,untitled,2023.2.3,299.1808428503304,2023-11-11 13h59.27.857571 +0800,
1,condition_1/leftstar.PNG,space,,,,,0,11,11,16,,,,,,,,,124.32885669999996,,,,,,,,,,,,,,,,,,,,,,,,,,,,,,,,,,,,,,,,,,,,,124.26000539999995,124.32885669999996,124.76165170000013,124.76166299999977,125.26211680000006,125.55860679999978,125.55861569999979,126.86935859999994,126.86935859999994,127.24921189999986,space,1,0.3773681000002398,None,125.7164545999999,,,,,,,,,,,,,,,,,,,,,,,,,,,,,,,,,,,,,,,,,,,,,,,,,,,,,,,,,,,,,,007,001,2023-11-11_13h59.12.795,untitled,2023.2.3,299.1808428503304,2023-11-11 13h59.27.857571 +0800,
8,condition_1/blank.PNG,space,,,,,0,12,12,10,,,,,,,,,127.32342900000003,,,,,,,,,,,,,,,,,,,,,,,,,,,,,,,,,,,,,,,,,,,,,127.24957480000012,127.32342900000003,127.75186639999993,127.75187679999999,128.24843959999998,128.5454297000001,128.54543999999987,129.9320306999998,129.9320306999998,131.53558729999986,space,1,1.6018177000000833,None,128.58221779999985,130.7353204000001,,,,,,,,,,,,,,,,,,,,,,,,,,,,,,,,,,,,,,,,,,,,,,,,,,,,,,,,,,,,,007,001,2023-11-11_13h59.12.795,untitled,2023.2.3,299.1808428503304,2023-11-11 13h59.27.857571 +0800,
9,condition_1/leftstar.PNG,left,,,,,0,13,13,3,,,,,,,,,131.60394619999988,,,,,,,,,,,,,,,,,,,,,,,,,,,,,,,,,,,,,,,,,,,,,131.53595790000008,131.60394619999988,132.03866100000005,132.0386709999998,132.53550600000017,132.8323532999998,132.8323664999998,134.18242899999996,134.18242899999996,134.43922759999987,left,1,0.2556159000000662,None,132.99243680000018,,,,,,,,,,,,,,,,,,,,,,,,,,,,,,,,,,,,,,,,,,,,,,,,,,,,,,,,,,,,,,007,001,2023-11-11_13h59.12.795,untitled,2023.2.3,299.1808428503304,2023-11-11 13h59.27.857571 +0800,
1,condition_1/rightstar.PNG,space,,,,,0,14,14,4,,,,,,,,,134.5085426999999,,,,,,,,,,,,,,,,,,,,,,,,,,,,,,,,,,,,,,,,,,,,,134.43959240000004,134.5085426999999,134.94184970000015,134.94185909999987,135.44242649999978,135.7388887000002,135.7388987999998,137.04945080000016,137.04945080000016,137.4089497,space,1,0.3566547999998875,None,135.89814829999978,,,,,,,,,,,,,,,,,,,,,,,,,,,,,,,,,,,,,,,,,,,,,,,,,,,,,,,,,,,,,,007,001,2023-11-11_13h59.12.795,untitled,2023.2.3,299.1808428503304,2023-11-11 13h59.27.857571 +0800,
2,condition_1/leftstar.PNG,space,,,,,0,15,15,1,,,,,,,,,137.48212049999984,,,,,,,,,,,,,,,,,,,,,,,,,,,,,,,,,,,,,,,,,,,,,137.4092896000002,137.48212049999984,137.9119353000001,137.91194459999997,138.40857920000008,138.70541920000005,138.70542990000013,140.01603449999993,140.01603449999993,140.57893150000018,space,1,0.5563177999997606,None,138.86555369999996,,,,,,,,,,,,,,,,,,,,,,,,,,,,,,,,,,,,,,,,,,,,,,,,,,,,,,,,,,,,,,007,001,2023-11-11_13h59.12.795,untitled,2023.2.3,299.1808428503304,2023-11-11 13h59.27.857571 +0800,
8,condition_1/rightstar.PNG,right,,,,,0,16,16,23,,,,,,,,,140.6593324999999,,,,,,,,,,,,,,,,,,,,,,,,,,,,,,,,,,,,,,,,,,,,,140.57927729999983,140.6593324999999,141.08178099999986,141.08179109999992,141.57850359999975,141.8752970999999,141.87530639999977,143.1867854000002,143.1867854000002,143.54191360000004,right,1,0.35385360000009314,None,142.04275240000015,,,,,,,,,,,,,,,,,,,,,,,,,,,,,,,,,,,,,,,,,,,,,,,,,,,,,,,,,,,,,,007,001,2023-11-11_13h59.12.795,untitled,2023.2.3,299.1808428503304,2023-11-11 13h59.27.857571 +0800,
8,condition_1/leftstar.PNG,left,,,,,0,17,17,18,,,,,,,,,143.61575749999975,,,,,,,,,,,,,,,,,,,,,,,,,,,,,,,,,,,,,,,,,,,,,143.54225540000016,143.61575749999975,144.0451764999998,144.04518569999982,144.54160349999984,144.83893510000007,144.8389441999998,146.14967309999975,146.14967309999975,146.68214360000002,left,1,0.5315702000002602,None,145.00638530000015,,,,,,,,,,,,,,,,,,,,,,,,,,,,,,,,,,,,,,,,,,,,,,,,,,,,,,,,,,,,,,007,001,2023-11-11_13h59.12.795,untitled,2023.2.3,299.1808428503304,2023-11-11 13h59.27.857571 +0800,
9,condition_1/leftstar.PNG,left,,,,,0,18,18,20,,,,,,,,,146.7540657999998,,,,,,,,,,,,,,,,,,,,,,,,,,,,,,,,,,,,,,,,,,,,,146.68249789999982,146.7540657999998,147.18873050000002,147.1887412000001,147.68180110000003,147.9823781,147.9823891000001,149.29061120000006,149.29061120000006,149.70846489999985,left,1,0.41595460000007733,None,148.1596399,,,,,,,,,,,,,,,,,,,,,,,,,,,,,,,,,,,,,,,,,,,,,,,,,,,,,,,,,,,,,,007,001,2023-11-11_13h59.12.795,untitled,2023.2.3,299.1808428503304,2023-11-11 13h59.27.857571 +0800,
9,condition_1/leftstar.PNG,left,,,,,0,19,19,19,,,,,,,,,149.78590179999992,,,,,,,,,,,,,,,,,,,,,,,,,,,,,,,,,,,,,,,,,,,,,149.70881700000018,149.78590179999992,150.20914240000002,150.2091532999998,150.70859470000005,151.00551899999982,151.00552860000016,152.31622490000018,152.31622490000018,152.6256911999999,left,1,0.30331169999999474,None,151.17289019999998,,,,,,,,,,,,,,,,,,,,,,,,,,,,,,,,,,,,,,,,,,,,,,,,,,,,,,,,,,,,,,007,001,2023-11-11_13h59.12.795,untitled,2023.2.3,299.1808428503304,2023-11-11 13h59.27.857571 +0800,
2,condition_1/blank.PNG,space,,,,,0,20,20,9,,,,,,,,,152.69500639999978,,,,,,,,,,,,,,,,,,,,,,,,,,,,,,,,,,,,,,,,,,,,,152.62605750000012,152.69500639999978,153.12868260000005,153.12869180000007,153.62488940000003,153.92192829999976,153.9219367999999,155.32613029999993,155.32613029999993,156.15552939999998,space,1,0.8283137999997052,None,153.95677449999994,156.12514379999993,,,,,,,,,,,,,,,,,,,,,,,,,,,,,,,,,,,,,,,,,,,,,,,,,,,,,,,,,,,,,007,001,2023-11-11_13h59.12.795,untitled,2023.2.3,299.1808428503304,2023-11-11 13h59.27.857571 +0800,
8,condition_1/rightstar.PNG,right,,,,,0,21,21,14,,,,,,,,,156.2257278000002,,,,,,,,,,,,,,,,,,,,,,,,,,,,,,,,,,,,,,,,,,,,,156.1558911000002,156.2257278000002,156.65853879999986,156.6585538999998,157.15516900000011,157.45555909999985,157.4555703000001,158.8012279999998,158.8012279999998,159.0691499999998,right,1,0.266960299999937,None,157.6195385000001,,,,,,,,,,,,,,,,,,,,,,,,,,,,,,,,,,,,,,,,,,,,,,,,,,,,,,,,,,,,,,007,001,2023-11-11_13h59.12.795,untitled,2023.2.3,299.1808428503304,2023-11-11 13h59.27.857571 +0800,
9,condition_1/rightstar.PNG,right,,,,,0,22,22,15,,,,,,,,,159.14077540000017,,,,,,,,,,,,,,,,,,,,,,,,,,,,,,,,,,,,,,,,,,,,,159.06949669999995,159.14077540000017,159.57215610000003,159.57216609999978,160.06831569999986,160.36557989999983,160.36559050000005,161.67645859999993,161.67645859999993,162.17556860000013,right,1,0.4965479000002233,None,160.52927850000015,,,,,,,,,,,,,,,,,,,,,,,,,,,,,,,,,,,,,,,,,,,,,,,,,,,,,,,,,,,,,,007,001,2023-11-11_13h59.12.795,untitled,2023.2.3,299.1808428503304,2023-11-11 13h59.27.857571 +0800,
8,condition_1/rightstar.PNG,right,,,,,0,23,23,6,,,,,,,,,162.25559329999987,,,,,,,,,,,,,,,,,,,,,,,,,,,,,,,,,,,,,,,,,,,,,162.17593339999985,162.25559329999987,162.67860770000016,162.6786186999998,163.17526869999983,163.4721727000001,163.47218399999974,164.78277070000013,164.78277070000013,165.08566010000004,right,1,0.30125459999999293,None,163.6359735000001,,,,,,,,,,,,,,,,,,,,,,,,,,,,,,,,,,,,,,,,,,,,,,,,,,,,,,,,,,,,,,007,001,2023-11-11_13h59.12.795,untitled,2023.2.3,299.1808428503304,2023-11-11 13h59.27.857571 +0800,
8,condition_1/blank.PNG,space,,,,,0,24,24,24,,,,,,,,,165.1662326999999,,,,,,,,,,,,,,,,,,,,,,,,,,,,,,,,,,,,,,,,,,,,,165.0861203999998,165.1662326999999,165.5884246999999,165.58843350000006,166.0851990000001,166.38197469999977,166.3819868999999,167.78985430000012,167.78985430000012,168.55893149999974,space,1,0.7682620000000497,None,166.41723509999974,,,,,,,,,,,,,,,,,,,,,,,,,,,,,,,,,,,,,,,,,,,,,,,,,,,,,,,,,,,,,,007,001,2023-11-11_13h59.12.795,untitled,2023.2.3,299.1808428503304,2023-11-11 13h59.27.857571 +0800,
1,condition_1/leftstar.PNG,space,,,,,1,0,25,0,,,,,,,,,168.6326623,,,,,,,,,,,,,,,,,,,,,,,,,,,,,,,,,,,,,,,,,,,,,168.5593088999999,168.6326623,169.06189249999989,169.06190289999995,169.55860759999996,169.8553167,169.85532669999975,171.20488999999998,171.20488999999998,171.54569390000006,space,1,0.33642220000001544,None,170.01622039999984,,,,,,,,,,,,,,,,,,,,,,,,,,,,,,,,,,,,,,,,,,,,,,,,,,,,,,,,,,,,,,007,001,2023-11-11_13h59.12.795,untitled,2023.2.3,299.1808428503304,2023-11-11 13h59.27.857571 +0800,
8,condition_1/rightstar.PNG,right,,,,,1,1,26,14,,,,,,,,,171.61922989999994,,,,,,,,,,,,,,,,,,,,,,,,,,,,,,,,,,,,,,,,,,,,,171.5460425000001,171.61922989999994,172.04863849999992,172.0486479000001,172.5452148999998,172.84206159999985,172.8420716999999,174.1529759,174.1529759,174.45579399999997,right,1,0.30158159999973577,None,173.00909339999998,,,,,,,,,,,,,,,,,,,,,,,,,,,,,,,,,,,,,,,,,,,,,,,,,,,,,,,,,,,,,,007,001,2023-11-11_13h59.12.795,untitled,2023.2.3,299.1808428503304,2023-11-11 13h59.27.857571 +0800,
8,condition_1/leftstar.PNG,left,,,,,1,2,27,2,,,,,,,,,174.52573429999984,,,,,,,,,,,,,,,,,,,,,,,,,,,,,,,,,,,,,,,,,,,,,174.4561450000001,174.52573429999984,174.95839750000005,174.95840709999993,175.45560010000008,175.75569319999977,175.75570579999976,177.06247910000002,177.06247910000002,177.8121615,left,1,0.7451553999999305,None,175.9155965,,,,,,,,,,,,,,,,,,,,,,,,,,,,,,,,,,,,,,,,,,,,,,,,,,,,,,,,,,,,,,007,001,2023-11-11_13h59.12.795,untitled,2023.2.3,299.1808428503304,2023-11-11 13h59.27.857571 +0800,
9,condition_1/rightstar.PNG,right,,,,,1,3,28,7,,,,,,,,,177.88544790000014,,,,,,,,,,,,,,,,,,,,,,,,,,,,,,,,,,,,,,,,,,,,,177.81250379999983,177.88544790000014,178.3152052999999,178.31521609999982,178.81182750000016,179.1122507,179.1122602999999,180.4194177999998,180.4194177999998,180.76520100000016,right,1,0.34448509999992893,None,179.2829683,,,,,,,,,,,,,,,,,,,,,,,,,,,,,,,,,,,,,,,,,,,,,,,,,,,,,,,,,,,,,,007,001,2023-11-11_13h59.12.795,untitled,2023.2.3,299.1808428503304,2023-11-11 13h59.27.857571 +0800,
1,condition_1/rightstar.PNG,space,,,,,1,4,29,4,,,,,,,,,180.83980669999983,,,,,,,,,,,,,,,,,,,,,,,,,,,,,,,,,,,,,,,,,,,,,180.7655466000001,180.83980669999983,181.26848130000008,181.2684908000001,181.76527499999975,182.0622573999999,182.06226560000005,183.37302679999993,183.37302679999993,183.9690055000001,space,1,0.5944178000004285,None,182.22622300000012,,,,,,,,,,,,,,,,,,,,,,,,,,,,,,,,,,,,,,,,,,,,,,,,,,,,,,,,,,,,,,007,001,2023-11-11_13h59.12.795,untitled,2023.2.3,299.1808428503304,2023-11-11 13h59.27.857571 +0800,
8,condition_1/leftstar.PNG,left,,,,,1,5,30,18,,,,,,,,,184.04217759999983,,,,,,,,,,,,,,,,,,,,,,,,,,,,,,,,,,,,,,,,,,,,,183.96935799999983,184.04217759999983,184.47181349999983,184.47182440000006,184.96840059999977,185.2658636000001,185.26588409999977,186.57583699999986,186.57583699999986,186.94945289999987,left,1,0.36630129999957717,None,185.4296601000001,,,,,,,,,,,,,,,,,,,,,,,,,,,,,,,,,,,,,,,,,,,,,,,,,,,,,,,,,,,,,,007,001,2023-11-11_13h59.12.795,untitled,2023.2.3,299.1808428503304,2023-11-11 13h59.27.857571 +0800,
9,condition_1/leftstar.PNG,left,,,,,1,6,31,19,,,,,,,,,187.02278639999986,,,,,,,,,,,,,,,,,,,,,,,,,,,,,,,,,,,,,,,,,,,,,186.94987549999996,187.02278639999986,187.45181580000008,187.45182620000014,187.9515133,188.24870819999978,188.24871930000018,189.57799350000005,189.57799350000005,190.02557949999982,left,1,0.44634450000012293,None,188.40931219999993,,,,,,,,,,,,,,,,,,,,,,,,,,,,,,,,,,,,,,,,,,,,,,,,,,,,,,,,,,,,,,007,001,2023-11-11_13h59.12.795,untitled,2023.2.3,299.1808428503304,2023-11-11 13h59.27.857571 +0800,
2,condition_1/blank.PNG,space,,,,,1,7,32,9,,,,,,,,,190.10238879999997,,,,,,,,,,,,,,,,,,,,,,,,,,,,,,,,,,,,,,,,,,,,,190.02599169999985,190.10238879999997,190.52843960000018,190.5284499999998,191.02482150000014,191.32243519999975,191.32244549999996,192.73557870000013,192.73557870000013,193.40555600000016,space,1,0.6668420999999398,None,191.35826369999995,,,,,,,,,,,,,,,,,,,,,,,,,,,,,,,,,,,,,,,,,,,,,,,,,,,,,,,,,,,,,,007,001,2023-11-11_13h59.12.795,untitled,2023.2.3,299.1808428503304,2023-11-11 13h59.27.857571 +0800,
8,condition_1/blank.PNG,space,,,,,1,8,33,10,,,,,,,,,193.4830132000002,,,,,,,,,,,,,,,,,,,,,,,,,,,,,,,,,,,,,,,,,,,,,193.40589450000016,193.4830132000002,193.90860029999976,193.90860999999995,194.40493770000012,194.70200879999993,194.70201799999995,196.00896349999994,196.00896349999994,197.48228370000015,space,1,1.4713565999995808,None,194.7374952,196.80848349999997,,,,,,,,,,,,,,,,,,,,,,,,,,,,,,,,,,,,,,,,,,,,,,,,,,,,,,,,,,,,,007,001,2023-11-11_13h59.12.795,untitled,2023.2.3,299.1808428503304,2023-11-11 13h59.27.857571 +0800,
1,condition_1/leftstar.PNG,space,,,,,1,9,34,16,,,,,,,,,197.55605409999998,,,,,,,,,,,,,,,,,,,,,,,,,,,,,,,,,,,,,,,,,,,,,197.48266699999976,197.55605409999998,197.98524719999978,197.9852578,198.48527669999976,198.78190210000002,198.78191090000018,200.12951699999985,200.12951699999985,200.5491060999998,left,0,0.41724139999996623,None,198.94567159999997,,,,,,,,,,,,,,,,,,,,,,,,,,,,,,,,,,,,,,,,,,,,,,,,,,,,,,,,,,,,,,007,001,2023-11-11_13h59.12.795,untitled,2023.2.3,299.1808428503304,2023-11-11 13h59.27.857571 +0800,
9,condition_1/leftstar.PNG,left,,,,,1,10,35,20,,,,,,,,,200.62884600000007,,,,,,,,,,,,,,,,,,,,,,,,,,,,,,,,,,,,,,,,,,,,,200.54946689999997,200.62884600000007,201.0498263999998,201.04983600000014,201.54842959999996,201.84580589999996,201.84581489999982,203.1568960999998,203.1568960999998,203.78250089999983,left,1,0.6201157000000421,None,202.0095041999998,,,,,,,,,,,,,,,,,,,,,,,,,,,,,,,,,,,,,,,,,,,,,,,,,,,,,,,,,,,,,,007,001,2023-11-11_13h59.12.795,untitled,2023.2.3,299.1808428503304,2023-11-11 13h59.27.857571 +0800,
8,condition_1/rightstar.PNG,right,,,,,1,11,36,6,,,,,,,,,203.85603790000005,,,,,,,,,,,,,,,,,,,,,,,,,,,,,,,,,,,,,,,,,,,,,203.78287880000016,203.85603790000005,204.28512499999988,204.28513539999994,204.7848914000001,205.08260400000017,205.08261649999986,206.38976270000012,206.38976270000012,206.92919560000018,right,1,0.5361631000000671,None,205.2494231999999,,,,,,,,,,,,,,,,,,,,,,,,,,,,,,,,,,,,,,,,,,,,,,,,,,,,,,,,,,,,,,007,001,2023-11-11_13h59.12.795,untitled,2023.2.3,299.1808428503304,2023-11-11 13h59.27.857571 +0800,
9,condition_1/rightstar.PNG,right,,,,,1,12,37,15,,,,,,,,,207.00292369999988,,,,,,,,,,,,,,,,,,,,,,,,,,,,,,,,,,,,,,,,,,,,,206.92956279999999,207.00292369999988,207.4315277999999,207.43153930000017,207.93201940000017,208.23188709999977,208.2318967000001,209.53634109999985,209.53634109999985,210.00242709999975,right,1,0.4652108000000226,None,,,,,,,,,,,,,,,,,,,,,,,,,,,,,,,,,,,,,,,,,,,,,,,,,,,,,,,,,,,,,,,007,001,2023-11-11_13h59.12.795,untitled,2023.2.3,299.1808428503304,2023-11-11 13h59.27.857571 +0800,
1,condition_1/leftstar.PNG,space,,,,,1,13,38,22,,,,,,,,,210.07600880000018,,,,,,,,,,,,,,,,,,,,,,,,,,,,,,,,,,,,,,,,,,,,,210.00279,210.07600880000018,210.50517179999997,210.50518269999975,211.00843720000012,211.3050973999998,211.3051077,212.61000000000013,212.61000000000013,212.91258800000014,space,1,0.29643990000022313,None,,,,,,,,,,,,,,,,,,,,,,,,,,,,,,,,,,,,,,,,,,,,,,,,,,,,,,,,,,,,,,,007,001,2023-11-11_13h59.12.795,untitled,2023.2.3,299.1808428503304,2023-11-11 13h59.27.857571 +0800,
2,condition_1/rightstar.PNG,space,,,,,1,14,39,21,,,,,,,,,212.9863562999999,,,,,,,,,,,,,,,,,,,,,,,,,,,,,,,,,,,,,,,,,,,,,212.91301620000013,212.9863562999999,213.41504639999994,213.41505700000016,213.91512430000012,214.21203460000015,214.21204579999994,215.52276819999997,215.52276819999997,216.03559219999988,space,1,0.5088675000001786,None,214.37612690000014,,,,,,,,,,,,,,,,,,,,,,,,,,,,,,,,,,,,,,,,,,,,,,,,,,,,,,,,,,,,,,007,001,2023-11-11_13h59.12.795,untitled,2023.2.3,299.1808428503304,2023-11-11 13h59.27.857571 +0800,
8,condition_1/rightstar.PNG,right,,,,,1,15,40,23,,,,,,,,,216.1089106999998,,,,,,,,,,,,,,,,,,,,,,,,,,,,,,,,,,,,,,,,,,,,,216.03594859999976,216.1089106999998,216.53849360000004,216.53850479999983,217.03524349999998,217.33213939999996,217.33215010000004,218.64305030000014,218.64305030000014,218.90547629999992,right,1,0.26029339999968215,None,217.4930049999998,,,,,,,,,,,,,,,,,,,,,,,,,,,,,,,,,,,,,,,,,,,,,,,,,,,,,,,,,,,,,,007,001,2023-11-11_13h59.12.795,untitled,2023.2.3,299.1808428503304,2023-11-11 13h59.27.857571 +0800,
1,condition_1/rightstar.PNG,space,,,,,1,16,41,12,,,,,,,,,218.98289019999993,,,,,,,,,,,,,,,,,,,,,,,,,,,,,,,,,,,,,,,,,,,,,218.90582159999985,218.98289019999993,219.40832279999995,219.40833169999996,219.9050972,220.2055022999998,220.20551369999976,221.51319469999999,221.51319469999999,221.7856827999999,space,1,0.2699885000001814,None,220.36646740000015,,,,,,,,,,,,,,,,,,,,,,,,,,,,,,,,,,,,,,,,,,,,,,,,,,,,,,,,,,,,,,007,001,2023-11-11_13h59.12.795,untitled,2023.2.3,299.1808428503304,2023-11-11 13h59.27.857571 +0800,
2,condition_1/rightstar.PNG,space,,,,,1,17,42,13,,,,,,,,,221.8625677,,,,,,,,,,,,,,,,,,,,,,,,,,,,,,,,,,,,,,,,,,,,,221.78603449999991,221.8625677,222.29214409999986,222.29215470000008,222.7852082999998,223.08199259999992,223.08200249999982,224.39360699999997,224.39360699999997,224.70571689999997,space,1,0.3113088999998581,None,223.24620989999994,,,,,,,,,,,,,,,,,,,,,,,,,,,,,,,,,,,,,,,,,,,,,,,,,,,,,,,,,,,,,,007,001,2023-11-11_13h59.12.795,untitled,2023.2.3,299.1808428503304,2023-11-11 13h59.27.857571 +0800,
9,condition_1/leftstar.PNG,left,,,,,1,18,43,3,,,,,,,,,224.78580610000017,,,,,,,,,,,,,,,,,,,,,,,,,,,,,,,,,,,,,,,,,,,,,224.70605849999993,224.78580610000017,225.20849640000006,225.20850719999999,225.7048576000002,226.00202189999982,226.00203139999985,227.31330049999997,227.31330049999997,227.6124635000001,left,1,0.2971896000003653,None,226.17303850000008,,,,,,,,,,,,,,,,,,,,,,,,,,,,,,,,,,,,,,,,,,,,,,,,,,,,,,,,,,,,,,007,001,2023-11-11_13h59.12.795,untitled,2023.2.3,299.1808428503304,2023-11-11 13h59.27.857571 +0800,
2,condition_1/rightstar.PNG,space,,,,,1,19,44,5,,,,,,,,,227.69248449999986,,,,,,,,,,,,,,,,,,,,,,,,,,,,,,,,,,,,,,,,,,,,,227.61287600000014,227.69248449999986,228.11516900000015,228.1151786999999,228.6114945999998,228.90854739999986,228.90855599999986,230.22298629999977,230.22298629999977,230.4924120999999,space,1,0.26864409999961936,None,229.0731162000002,,,,,,,,,,,,,,,,,,,,,,,,,,,,,,,,,,,,,,,,,,,,,,,,,,,,,,,,,,,,,,007,001,2023-11-11_13h59.12.795,untitled,2023.2.3,299.1808428503304,2023-11-11 13h59.27.857571 +0800,
2,condition_1/leftstar.PNG,space,,,,,1,20,45,17,,,,,,,,,230.56615520000014,,,,,,,,,,,,,,,,,,,,,,,,,,,,,,,,,,,,,,,,,,,,,230.49283890000015,230.56615520000014,230.9953071,230.99531739999975,231.49480959999983,231.79199259999996,231.79200149999997,233.09972049999988,233.09972049999988,233.43896129999985,space,1,0.333722299999863,None,231.96984650000013,,,,,,,,,,,,,,,,,,,,,,,,,,,,,,,,,,,,,,,,,,,,,,,,,,,,,,,,,,,,,,007,001,2023-11-11_13h59.12.795,untitled,2023.2.3,299.1808428503304,2023-11-11 13h59.27.857571 +0800,
1,condition_1/blank.PNG,space,,,,,1,21,46,8,,,,,,,,,233.51880679999977,,,,,,,,,,,,,,,,,,,,,,,,,,,,,,,,,,,,,,,,,,,,,233.43932630000018,233.51880679999977,233.94188480000003,233.94189559999995,234.43859789999988,234.73546099999976,234.73547120000012,236.13903690000006,236.13903690000006,237.54429290000007,space,1,1.3986343999999917,None,234.77497200000016,236.93835940000008,,,,,,,,,,,,,,,,,,,,,,,,,,,,,,,,,,,,,,,,,,,,,,,,,,,,,,,,,,,,,007,001,2023-11-11_13h59.12.795,untitled,2023.2.3,299.1808428503304,2023-11-11 13h59.27.857571 +0800,
9,condition_1/blank.PNG,space,,,,,1,22,47,11,,,,,,,,,237.66274750000002,,,,,,,,,,,,,,,,,,,,,,,,,,,,,,,,,,,,,,,,,,,,,237.54831460000014,237.66274750000002,238.04871129999992,238.04872209999985,238.54851839999992,238.8455098999998,238.84551969999984,240.15137779999986,240.15137779999986,241.79225050000014,space,1,1.6387313000000177,None,238.8813181999999,240.9552131999999,,,,,,,,,,,,,,,,,,,,,,,,,,,,,,,,,,,,,,,,,,,,,,,,,,,,,,,,,,,,,007,001,2023-11-11_13h59.12.795,untitled,2023.2.3,299.1808428503304,2023-11-11 13h59.27.857571 +0800,
2,condition_1/leftstar.PNG,space,,,,,1,23,48,1,,,,,,,,,241.86583519999976,,,,,,,,,,,,,,,,,,,,,,,,,,,,,,,,,,,,,,,,,,,,,241.79262419999986,241.86583519999976,242.2952540000001,242.29526380000016,242.79176340000004,243.08913089999987,243.0891413999998,244.4359356,244.4359356,244.77610430000004,space,1,0.339267800000016,None,243.2494155999998,,,,,,,,,,,,,,,,,,,,,,,,,,,,,,,,,,,,,,,,,,,,,,,,,,,,,,,,,,,,,,007,001,2023-11-11_13h59.12.795,untitled,2023.2.3,299.1808428503304,2023-11-11 13h59.27.857571 +0800,
8,condition_1/blank.PNG,space,,,,,1,24,49,24,,,,,,,,,244.84929060000013,,,,,,,,,,,,,,,,,,,,,,,,,,,,,,,,,,,,,,,,,,,,,244.77647160000015,244.84929060000013,245.27858650000007,245.27859720000015,245.77842640000017,246.07533090000015,246.07534020000003,247.4825418999999,247.4825418999999,248.65552500000013,space,1,1.1699558000000252,None,246.11179690000017,248.2823389,,,,,,,,,,,,,,,,,,,,,,,,,,,,,,,,,,,,,,,,,,,,,,,,,,,,,,,,,,,,,007,001,2023-11-11_13h59.12.795,untitled,2023.2.3,299.1808428503304,2023-11-11 13h59.27.857571 +0800,
,,,,,,,,,,,,,,,,,,,,,,,,,,,,,,,,,,,,,,,,,,,,,,,,,,,,,,,,,,,,,,,,,,,,,,,,,,,,,,,,248.65581209999982,248.66010469999992,248.66010469999992,252.6390276000002,space,3.9762187999999696,None,,,,,,,,,,,,,,,,,,,,,,,,,,,,,,,,,,,,,,,,,,,,,,,,,,,,,,007,001,2023-11-11_13h59.12.795,untitled,2023.2.3,299.1808428503304,2023-11-11 13h59.27.857571 +0800,
,,,,,,,,,,,,,,,,,,,,,,,,,,,,,,,,,,,,,,,,,,,,,,,,,,,,,,,,,,,,,,,,,,,,,,,,,,,,,,,,,,,,,,,252.63904989999992,252.64510629999995,252.64510629999995,254.22888030000013,space,1.578377399999681,None,,,,,,,,,,,,,,,,,,,,,,,,,,,,,,,,,,,,,,,,,,,,,,,007,001,2023-11-11_13h59.12.795,untitled,2023.2.3,299.1808428503304,2023-11-11 13h59.27.857571 +0800,
1,test2/leftstar.PNG,left,,,,,,,,,0,0,0,0,,,,,254.30638820000013,,,,,,,,,,,,,,,,,,,,,,,,,,,,,,,,,,,,,,,,,,,,,,,,,,,,,,,,,,,,,,,,,,,,,,,,,,,254.23388990000012,254.30638820000013,254.73163290000002,254.7316455,255.22841719999997,255.68930199999977,255.52548419999994,255.52549390000013,256.84115900000006,256.84115900000006,257.2099588000001,space,0.36443350000035934,None,,,,,,,,,,,,,,,,,,,,,,,,,,,,,,,,,007,001,2023-11-11_13h59.12.795,untitled,2023.2.3,299.1808428503304,2023-11-11 13h59.27.857571 +0800,
8,test2/rightstar.PNG,space,,,,,,,,,0,1,1,1,,,,,257.28301120000015,,,,,,,,,,,,,,,,,,,,,,,,,,,,,,,,,,,,,,,,,,,,,,,,,,,,,,,,,,,,,,,,,,,,,,,,,,,257.2104886000002,257.28301120000015,257.71190449999995,257.71191469999985,258.21138370000017,258.67286430000013,258.50871259999985,258.50872489999983,259.8197854,259.8197854,260.39566939999986,right,0.5719483000002583,None,,,,,,,,,,,,,,,,,,,,,,,,,,,,,,,,,007,001,2023-11-11_13h59.12.795,untitled,2023.2.3,299.1808428503304,2023-11-11 13h59.27.857571 +0800,
1,test2/blank.PNG,space,,,,,,,,,0,2,2,2,,,,,260.4682922000002,,,,,,,,,,,,,,,,,,,,,,,,,,,,,,,,,,,,,,,,,,,,,,,,,,,,,,,,,,,,,,,,,,,,,,,,,,,260.3959850000001,260.4682922000002,260.8984335,260.89844459999995,261.39507820000017,261.72856980000006,261.6919088999998,261.69191980000005,263.1006966,263.1006966,263.6687723,space,0.5646425999998428,None,,,,,,,,,,,,,,,,,,,,,,,,,,,,,,,,,007,001,2023-11-11_13h59.12.795,untitled,2023.2.3,299.1808428503304,2023-11-11 13h59.27.857571 +0800,
8,test2/rightstar.PNG,space,,,,,,,,,0,3,3,5,,,,,263.74578840000004,,,,,,,,,,,,,,,,,,,,,,,,,,,,,,,,,,,,,,,,,,,,,,,,,,,,,,,,,,,,,,,,,,,,,,,,,,,263.6690902999999,263.74578840000004,264.1717699000001,264.17178030000014,264.6685730999998,265.14279579999993,264.9653352,264.96534599999995,266.3155959999999,266.3155959999999,266.7151561999999,right,0.3968457999999373,None,,,,,,,,,,,,,,,,,,,,,,,,,,,,,,,,,007,001,2023-11-11_13h59.12.795,untitled,2023.2.3,299.1808428503304,2023-11-11 13h59.27.857571 +0800,
9,test2/rightstar.PNG,space,,,,,,,,,0,4,4,3,,,,,266.79246139999987,,,,,,,,,,,,,,,,,,,,,,,,,,,,,,,,,,,,,,,,,,,,,,,,,,,,,,,,,,,,,,,,,,,,,,,,,,,266.71550049999996,266.79246139999987,267.2186689,267.2186794999998,267.7153684,268.1794638000001,268.01181429999997,268.01182500000004,269.32691620000014,269.32691620000014,269.6421765,right,0.3104036999998243,None,,,,,,,,,,,,,,,,,,,,,,,,,,,,,,,,,007,001,2023-11-11_13h59.12.795,untitled,2023.2.3,299.1808428503304,2023-11-11 13h59.27.857571 +0800,
2,test2/leftstar.PNG,left,,,,,,,,,0,5,5,4,,,,,269.71626190000006,,,,,,,,,,,,,,,,,,,,,,,,,,,,,,,,,,,,,,,,,,,,,,,,,,,,,,,,,,,,,,,,,,,,,,,,,,,269.6425503999999,269.71626190000006,270.1450931999998,270.1451043000002,270.6417412999999,271.0950244999999,270.9384667999998,270.93847749999986,272.2498713,272.2498713,272.7822888999999,space,0.5313317999998617,None,,,,,,,,,,,,,,,,,,,,,,,,,,,,,,,,,007,001,2023-11-11_13h59.12.795,untitled,2023.2.3,299.1808428503304,2023-11-11 13h59.27.857571 +0800,
,,,,,,,,,,,,,,,,,,,,,,,,,,,,,,,,,,,,,,,,,,,,,,,,,,,,,,,,,,,,,,,,,,,,,,,,,,,,,,,,,,,,,,,,,,,,,,,,,,,,,,,,,,,,272.7825363000002,272.7863102000001,272.7863102000001,273.79166209999994,277.88871500000005,space,5.0995106000000305,None,,,,,,,,,,,,,,,,,,,,,,,,,007,001,2023-11-11_13h59.12.795,untitled,2023.2.3,299.1808428503304,2023-11-11 13h59.27.857571 +0800,
,,,,,,,,,,,,,,,,,,,,,,,,,,,,,,,,,,,,,,,,,,,,,,,,,,,,,,,,,,,,,,,,,,,,,,,,,,,,,,,,,,,,,,,,,,,,,,,,,,,,,,,,,,,,,,,,,,,,277.88873950000016,277.89299100000017,277.89299100000017,278.8950408999999,279.67541819999997,space,1.7806781999997838,None,,,,,,,,,,,,,,,,,007,001,2023-11-11_13h59.12.795,untitled,2023.2.3,299.1808428503304,2023-11-11 13h59.27.857571 +0800,
2,condition_2/rightstar.PNG,left,,,,,,,,,,,,,0,0,0,5,279.7559166000001,,,,,,,,,,,,,,,,,,,,,,,,,,,,,,,,,,,,,,,,,,,,,,,,,,,,,,,,,,,,,,,,,,,,,,,,,,,,,,,,,,,,,,,,,,,,,,,,,,,,,,,,,279.6805466999999,279.7559166000001,280.1783316000001,280.1783440999998,280.67523619999974,281.1328474000002,280.9719415999998,280.9719525999999,282.2909150999999,282.2909150999999,282.6887802000001,space,0,0.39155140000002575,None,,007,001,2023-11-11_13h59.12.795,untitled,2023.2.3,299.1808428503304,2023-11-11 13h59.27.857571 +0800,
8,condition_2/rightstar.PNG,space,,,,,,,,,,,,,0,1,1,6,282.7621487000001,,,,,,,,,,,,,,,,,,,,,,,,,,,,,,,,,,,,,,,,,,,,,,,,,,,,,,,,,,,,,,,,,,,,,,,,,,,,,,,,,,,,,,,,,,,,,,,,,,,,,,,,,282.6892754999999,282.7621487000001,283.19167179999977,283.1916836999999,283.68848579999985,284.15936569999985,283.9888255999999,283.9888381999999,285.29631960000006,285.29631960000006,285.59547310000016,right,0,0.2973926000004212,None,,007,001,2023-11-11_13h59.12.795,untitled,2023.2.3,299.1808428503304,2023-11-11 13h59.27.857571 +0800,
8,condition_2/leftstar.PNG,space,,,,,,,,,,,,,0,2,2,2,285.6694787000001,,,,,,,,,,,,,,,,,,,,,,,,,,,,,,,,,,,,,,,,,,,,,,,,,,,,,,,,,,,,,,,,,,,,,,,,,,,,,,,,,,,,,,,,,,,,,,,,,,,,,,,,,285.5958305999998,285.6694787000001,286.09855719999996,286.09856919999993,286.59506550000015,287.0563496,286.8918233999998,286.8918343,288.2031118,288.2031118,288.67931439999984,left,0,0.47454860000016197,None,,007,001,2023-11-11_13h59.12.795,untitled,2023.2.3,299.1808428503304,2023-11-11 13h59.27.857571 +0800,
9,condition_2/leftstar.PNG,space,,,,,,,,,,,,,0,3,3,3,288.74891660000003,,,,,,,,,,,,,,,,,,,,,,,,,,,,,,,,,,,,,,,,,,,,,,,,,,,,,,,,,,,,,,,,,,,,,,,,,,,,,,,,,,,,,,,,,,,,,,,,,,,,,,,,,288.67970920000016,288.74891660000003,289.18168779999996,289.18169940000007,289.68168479999986,290.1527695,289.9784903999998,289.97849970000016,291.2894255000001,291.2894255000001,291.6564840000001,left,0,0.3628494999998111,None,,007,001,2023-11-11_13h59.12.795,untitled,2023.2.3,299.1808428503304,2023-11-11 13h59.27.857571 +0800,
8,condition_2/rightstar.PNG,space,,,,,,,,,,,,,0,4,4,23,291.73218880000013,,,,,,,,,,,,,,,,,,,,,,,,,,,,,,,,,,,,,,,,,,,,,,,,,,,,,,,,,,,,,,,,,,,,,,,,,,,,,,,,,,,,,,,,,,,,,,,,,,,,,,,,,291.65689680000014,291.73218880000013,292.15847239999994,292.1584836000002,292.65812989999995,,292.95839909999995,292.95841169999994,294.2662491000001,294.2662491000001,294.63599650000015,right,0,0.3679786000002423,None,,007,001,2023-11-11_13h59.12.795,untitled,2023.2.3,299.1808428503304,2023-11-11 13h59.27.857571 +0800,
2,condition_2/leftstar.PNG,left,,,,,,,,,,,,,0,5,5,1,294.7085591,,,,,,,,,,,,,,,,,,,,,,,,,,,,,,,,,,,,,,,,,,,,,,,,,,,,,,,,,,,,,,,,,,,,,,,,,,,,,,,,,,,,,,,,,,,,,,,,,,,,,,,,,294.6364116,294.7085591,295.13821419999977,295.13822819999996,295.63802099999975,296.09884939999984,295.9351523999999,295.93516199999976,297.24685390000013,297.24685390000013,297.55228020000004,space,0,0.30364490000010846,None,,007,001,2023-11-11_13h59.12.795,untitled,2023.2.3,299.1808428503304,2023-11-11 13h59.27.857571 +0800,
9,condition_2/leftstar.PNG,space,,,,,,,,,,,,,0,6,6,24,297.6213208999998,,,,,,,,,,,,,,,,,,,,,,,,,,,,,,,,,,,,,,,,,,,,,,,,,,,,,,,,,,,,,,,,,,,,,,,,,,,,,,,,,,,,,,,,,,,,,,,,,,,,,,,,,297.5527090999999,297.6213208999998,298.0550742999999,298.05508899999995,298.5517479,299.0090329999998,298.84842720000006,298.8484368999998,300.159572,300.159572,311.7986953999998,space,1,11.636229899999762,None,300.9617586999998,007,001,2023-11-11_13h59.12.795,untitled,2023.2.3,299.1808428503304,2023-11-11 13h59.27.857571 +0800,
8,condition_2/leftstar.PNG,space,,,,,,,,,,,,,0,7,7,18,311.8687371000001,,,,,,,,,,,,,,,,,,,,,,,,,,,,,,,,,,,,,,,,,,,,,,,,,,,,,,,,,,,,,,,,,,,,,,,,,,,,,,,,,,,,,,,,,,,,,,,,,,,,,,,,,311.7990684000001,311.8687371000001,312.313631,312.3137074000001,312.7986096999998,313.2592411999999,313.0976943999999,313.0977063,314.40600889999996,314.40600889999996,315.3921642,space,1,0.9846631999998863,None,315.20826709999983,007,001,2023-11-11_13h59.12.795,untitled,2023.2.3,299.1808428503304,2023-11-11 13h59.27.857571 +0800,
2,condition_2/rightstar.PNG,right,,,,,,,,,,,,,0,8,8,13,315.4644204000001,,,,,,,,,,,,,,,,,,,,,,,,,,,,,,,,,,,,,,,,,,,,,,,,,,,,,,,,,,,,,,,,,,,,,,,,,,,,,,,,,,,,,,,,,,,,,,,,,,,,,,,,,315.3925327000002,315.4644204000001,315.8950378999998,315.89504829999987,316.3914233999999,316.84923789999993,316.6887781999999,316.6887885000001,317.9995227999998,317.9995227999998,318.29882080000016,right,1,0.29818999999997686,None,,007,001,2023-11-11_13h59.12.795,untitled,2023.2.3,299.1808428503304,2023-11-11 13h59.27.857571 +0800,
2,condition_2/leftstar.PNG,left,,,,,,,,,,,,,0,9,9,22,318.37615049999977,,,,,,,,,,,,,,,,,,,,,,,,,,,,,,,,,,,,,,,,,,,,,,,,,,,,,,,,,,,,,,,,,,,,,,,,,,,,,,,,,,,,,,,,,,,,,,,,,,,,,,,,,318.2991885000001,318.37615049999977,318.8018731000002,318.8018843,319.29794519999996,319.7522994000001,319.59506039999997,319.59506999999985,320.90716810000004,320.90716810000004,321.24881430000005,left,1,0.33996369999977105,None,,007,001,2023-11-11_13h59.12.795,untitled,2023.2.3,299.1808428503304,2023-11-11 13h59.27.857571 +0800,
1,condition_2/leftstar.PNG,left,,,,,,,,,,,,,0,10,10,0,321.3163690000001,,,,,,,,,,,,,,,,,,,,,,,,,,,,,,,,,,,,,,,,,,,,,,,,,,,,,,,,,,,,,,,,,,,,,,,,,,,,,,,,,,,,,,,,,,,,,,,,,,,,,,,,,321.24917830000004,321.3163690000001,321.7516993999998,321.75171219999993,322.24818860000005,322.69780279999986,322.545243,322.54525490000015,323.85609049999994,323.85609049999994,324.3489774999998,left,1,0.4914683000001787,None,,007,001,2023-11-11_13h59.12.795,untitled,2023.2.3,299.1808428503304,2023-11-11 13h59.27.857571 +0800,
9,condition_2/rightstar.PNG,space,,,,,,,,,,,,,0,11,11,15,324.42583379999996,,,,,,,,,,,,,,,,,,,,,,,,,,,,,,,,,,,,,,,,,,,,,,,,,,,,,,,,,,,,,,,,,,,,,,,,,,,,,,,,,,,,,,,,,,,,,,,,,,,,,,,,,324.3493520000002,324.42583379999996,324.85166470000013,324.8516768999998,325.34836700000005,325.80559779999976,325.6451456,325.64515649999976,326.9590036999998,326.9590036999998,327.7458335000001,space,1,0.7828451000000314,None,,007,001,2023-11-11_13h59.12.795,untitled,2023.2.3,299.1808428503304,2023-11-11 13h59.27.857571 +0800,
1,condition_2/leftstar.PNG,left,,,,,,,,,,,,,0,12,12,16,327.8258811999999,,,,,,,,,,,,,,,,,,,,,,,,,,,,,,,,,,,,,,,,,,,,,,,,,,,,,,,,,,,,,,,,,,,,,,,,,,,,,,,,,,,,,,,,,,,,,,,,,,,,,,,,,327.7461853,327.8258811999999,328.25169800000003,328.2517090000001,328.74831399999994,329.21669900000006,329.04519990000017,329.0452111999998,330.3557397999998,330.3557397999998,330.6486866,left,1,0.29150410000011107,None,,007,001,2023-11-11_13h59.12.795,untitled,2023.2.3,299.1808428503304,2023-11-11 13h59.27.857571 +0800,
9,condition_2/leftstar.PNG,space,,,,,,,,,,,,,0,13,13,19,330.7274011999998,,,,,,,,,,,,,,,,,,,,,,,,,,,,,,,,,,,,,,,,,,,,,,,,,,,,,,,,,,,,,,,,,,,,,,,,,,,,,,,,,,,,,,,,,,,,,,,,,,,,,,,,,330.64910150000014,330.7274011999998,331.15161050000006,331.15162280000004,331.64831189999995,332.10539329999983,331.9451423999999,331.9451552999999,333.2559517999998,333.2559517999998,333.7292192,space,1,0.4718484999998509,None,,007,001,2023-11-11_13h59.12.795,untitled,2023.2.3,299.1808428503304,2023-11-11 13h59.27.857571 +0800,
1,condition_2/rightstar.PNG,right,,,,,,,,,,,,,0,14,14,21,333.80545140000004,,,,,,,,,,,,,,,,,,,,,,,,,,,,,,,,,,,,,,,,,,,,,,,,,,,,,,,,,,,,,,,,,,,,,,,,,,,,,,,,,,,,,,,,,,,,,,,,,,,,,,,,,333.7296279000002,333.80545140000004,334.2318230000001,334.23183519999975,334.73162189999994,335.19547980000016,335.0287303,335.0287416000001,336.3391723999998,336.3391723999998,336.85549330000003,right,1,0.5151227999999719,None,,007,001,2023-11-11_13h59.12.795,untitled,2023.2.3,299.1808428503304,2023-11-11 13h59.27.857571 +0800,
9,condition_2/rightstar.PNG,space,,,,,,,,,,,,,0,15,15,7,336.92346970000017,,,,,,,,,,,,,,,,,,,,,,,,,,,,,,,,,,,,,,,,,,,,,,,,,,,,,,,,,,,,,,,,,,,,,,,,,,,,,,,,,,,,,,,,,,,,,,,,,,,,,,,,,336.85585630000014,336.92346970000017,337.3583407000001,337.35835240000006,337.85520659999975,338.3182886999998,338.1554606999998,338.15547319999996,339.46265630000016,339.46265630000016,339.7055841000001,space,1,0.23653250000006665,None,,007,001,2023-11-11_13h59.12.795,untitled,2023.2.3,299.1808428503304,2023-11-11 13h59.27.857571 +0800,
1,condition_2/blank.PNG,space,,,,,,,,,,,,,0,16,16,8,339.7734408000001,,,,,,,,,,,,,,,,,,,,,,,,,,,,,,,,,,,,,,,,,,,,,,,,,,,,,,,,,,,,,,,,,,,,,,,,,,,,,,,,,,,,,,,,,,,,,,,,,,,,,,,,,339.70593240000017,339.7734408000001,340.20829430000003,340.2083047000001,340.70502780000015,341.0367885999999,341.0018460000001,341.00185610000017,342.4050766999999,342.4050766999999,343.4453807,space,1,1.0373968999997487,None,343.20817609999995,007,001,2023-11-11_13h59.12.795,untitled,2023.2.3,299.1808428503304,2023-11-11 13h59.27.857571 +0800,
2,condition_2/leftstar.PNG,left,,,,,,,,,,,,,0,17,17,17,343.51238090000015,,,,,,,,,,,,,,,,,,,,,,,,,,,,,,,,,,,,,,,,,,,,,,,,,,,,,,,,,,,,,,,,,,,,,,,,,,,,,,,,,,,,,,,,,,,,,,,,,,,,,,,,,343.4457550000002,343.51238090000015,343.94810469999993,343.94811690000006,344.4451039999999,344.8962230000002,344.7419552000001,344.7419691,346.08843019999995,346.08843019999995,346.3949732000001,left,1,0.30399679999982254,None,,007,001,2023-11-11_13h59.12.795,untitled,2023.2.3,299.1808428503304,2023-11-11 13h59.27.857571 +0800,
9,condition_2/blank.PNG,space,,,,,,,,,,,,,0,18,18,11,346.4646766000001,,,,,,,,,,,,,,,,,,,,,,,,,,,,,,,,,,,,,,,,,,,,,,,,,,,,,,,,,,,,,,,,,,,,,,,,,,,,,,,,,,,,,,,,,,,,,,,,,,,,,,,,,346.3953234999999,346.4646766000001,346.89821949999987,346.8982314,347.3949170000001,347.72272999999996,347.6917496000001,347.69175940000014,349.1028408000002,349.1028408000002,349.64196779999975,space,1,0.5371958000000632,None,,007,001,2023-11-11_13h59.12.795,untitled,2023.2.3,299.1808428503304,2023-11-11 13h59.27.857571 +0800,
2,condition_2/blank.PNG,space,,,,,,,,,,,,,0,19,19,9,349.7104389000001,,,,,,,,,,,,,,,,,,,,,,,,,,,,,,,,,,,,,,,,,,,,,,,,,,,,,,,,,,,,,,,,,,,,,,,,,,,,,,,,,,,,,,,,,,,,,,,,,,,,,,,,,349.6423461999998,349.7104389000001,350.1449121999999,350.14492389999987,350.6417937000001,350.9748685999998,350.93890120000015,350.9389191999999,352.2444365000001,352.2444365000001,353.6521548999999,space,1,1.404972799999996,None,353.0448925999999,007,001,2023-11-11_13h59.12.795,untitled,2023.2.3,299.1808428503304,2023-11-11 13h59.27.857571 +0800,
1,condition_2/rightstar.PNG,right,,,,,,,,,,,,,0,20,20,12,353.71701889999986,,,,,,,,,,,,,,,,,,,,,,,,,,,,,,,,,,,,,,,,,,,,,,,,,,,,,,,,,,,,,,,,,,,,,,,,,,,,,,,,,,,,,,,,,,,,,,,,,,,,,,,,,353.65252999999984,353.71701889999986,354.1552885000001,354.15530119999994,354.6516806999998,355.1180515000001,354.94839349999984,354.94840410000006,356.30171310000014,356.30171310000014,356.6349859000002,right,1,0.3302002000000357,None,,007,001,2023-11-11_13h59.12.795,untitled,2023.2.3,299.1808428503304,2023-11-11 13h59.27.857571 +0800,
8,condition_2/blank.PNG,space,,,,,,,,,,,,,0,21,21,10,356.7089053999998,,,,,,,,,,,,,,,,,,,,,,,,,,,,,,,,,,,,,,,,,,,,,,,,,,,,,,,,,,,,,,,,,,,,,,,,,,,,,,,,,,,,,,,,,,,,,,,,,,,,,,,,,356.6353309000001,356.7089053999998,357.1421967000001,357.1422114000002,357.6383273000001,357.96509579999974,357.9352170000002,357.93522810000013,359.33232880000014,359.33232880000014,360.43193229999997,space,1,1.0969685000000027,None,360.1315448999999,007,001,2023-11-11_13h59.12.795,untitled,2023.2.3,299.1808428503304,2023-11-11 13h59.27.857571 +0800,
8,condition_2/rightstar.PNG,space,,,,,,,,,,,,,0,22,22,14,360.4983551,,,,,,,,,,,,,,,,,,,,,,,,,,,,,,,,,,,,,,,,,,,,,,,,,,,,,,,,,,,,,,,,,,,,,,,,,,,,,,,,,,,,,,,,,,,,,,,,,,,,,,,,,360.43230200000016,360.4983551,360.93494520000013,360.9349606999999,361.43172909999976,361.89916649999986,361.72897049999983,361.72898140000007,363.07717189999994,363.07717189999994,363.5222985999999,space,1,0.4433973000000151,None,,007,001,2023-11-11_13h59.12.795,untitled,2023.2.3,299.1808428503304,2023-11-11 13h59.27.857571 +0800,
2,condition_2/blank.PNG,space,,,,,,,,,,,,,0,23,23,20,363.59503170000016,,,,,,,,,,,,,,,,,,,,,,,,,,,,,,,,,,,,,,,,,,,,,,,,,,,,,,,,,,,,,,,,,,,,,,,,,,,,,,,,,,,,,,,,,,,,,,,,,,,,,,,,,363.52265929999976,363.59503170000016,364.02501059999986,364.0250221000001,364.52150470000015,364.8539965,364.8185005,364.81851400000005,366.24247090000017,366.24247090000017,367.32188529999985,space,1,1.0761940000002141,None,367.04159900000013,007,001,2023-11-11_13h59.12.795,untitled,2023.2.3,299.1808428503304,2023-11-11 13h59.27.857571 +0800,
1,condition_2/rightstar.PNG,right,,,,,,,,,,,,,0,24,24,4,367.38773949999995,,,,,,,,,,,,,,,,,,,,,,,,,,,,,,,,,,,,,,,,,,,,,,,,,,,,,,,,,,,,,,,,,,,,,,,,,,,,,,,,,,,,,,,,,,,,,,,,,,,,,,,,,367.3222538,367.38773949999995,367.82481989999997,367.8248316999998,368.3218655999999,368.7758236999998,368.61845829999993,368.6184695000002,369.9649840000002,369.9649840000002,370.25213459999986,right,1,0.28577110000014727,None,,007,001,2023-11-11_13h59.12.795,untitled,2023.2.3,299.1808428503304,2023-11-11 13h59.27.857571 +0800,
8,condition_2/leftstar.PNG,space,,,,,,,,,,,,,1,0,25,2,370.3218581000001,,,,,,,,,,,,,,,,,,,,,,,,,,,,,,,,,,,,,,,,,,,,,,,,,,,,,,,,,,,,,,,,,,,,,,,,,,,,,,,,,,,,,,,,,,,,,,,,,,,,,,,,,370.25250860000006,370.3218581000001,370.7549822000001,370.75499439999976,371.2515110999998,371.70721820000017,371.5483607000001,371.54837,372.85894370000005,372.85894370000005,373.3957387999999,space,1,0.5359684000000016,None,,007,001,2023-11-11_13h59.12.795,untitled,2023.2.3,299.1808428503304,2023-11-11 13h59.27.857571 +0800,
1,condition_2/rightstar.PNG,right,,,,,,,,,,,,,1,1,26,12,373.4696607000001,,,,,,,,,,,,,,,,,,,,,,,,,,,,,,,,,,,,,,,,,,,,,,,,,,,,,,,,,,,,,,,,,,,,,,,,,,,,,,,,,,,,,,,,,,,,,,,,,,,,,,,,,373.3961341999998,373.4696607000001,373.8982701,373.8982820000001,374.39838009999994,374.85547610000003,374.6951021,374.6951141999998,376.0060629999998,376.0060629999998,376.2853129,right,1,0.2762998999996853,None,,007,001,2023-11-11_13h59.12.795,untitled,2023.2.3,299.1808428503304,2023-11-11 13h59.27.857571 +0800,
9,condition_2/rightstar.PNG,space,,,,,,,,,,,,,1,2,27,15,376.3620827999998,,,,,,,,,,,,,,,,,,,,,,,,,,,,,,,,,,,,,,,,,,,,,,,,,,,,,,,,,,,,,,,,,,,,,,,,,,,,,,,,,,,,,,,,,,,,,,,,,,,,,,,,,376.2856928000001,376.3620827999998,376.78824780000014,376.7882596999998,377.2852945999998,377.7435982000002,377.58183789999975,377.5818491,378.8925085999999,378.8925085999999,379.1887590000001,space,1,0.29532960000005914,None,,007,001,2023-11-11_13h59.12.795,untitled,2023.2.3,299.1808428503304,2023-11-11 13h59.27.857571 +0800,
2,condition_2/blank.PNG,space,,,,,,,,,,,,,1,3,28,20,379.2657033999999,,,,,,,,,,,,,,,,,,,,,,,,,,,,,,,,,,,,,,,,,,,,,,,,,,,,,,,,,,,,,,,,,,,,,,,,,,,,,,,,,,,,,,,,,,,,,,,,,,,,,,,,,379.1891535,379.2657033999999,379.6915924,379.69160520000014,380.18816590000006,380.5164245000001,380.4851474000002,380.48515869999983,381.90245460000006,381.90245460000006,382.9086548,space,1,1.0052074999998695,None,382.7015528000002,007,001,2023-11-11_13h59.12.795,untitled,2023.2.3,299.1808428503304,2023-11-11 13h59.27.857571 +0800,
1,condition_2/blank.PNG,space,,,,,,,,,,,,,1,4,29,8,382.98573209999995,,,,,,,,,,,,,,,,,,,,,,,,,,,,,,,,,,,,,,,,,,,,,,,,,,,,,,,,,,,,,,,,,,,,,,,,,,,,,,,,,,,,,,,,,,,,,,,,,,,,,,,,,382.90903130000015,382.98573209999995,383.41162010000016,383.41163270000015,383.9082620999998,384.2356914000002,384.2054253000001,384.2054425000001,385.5111112999998,385.5111112999998,386.59869119999985,space,1,1.0863736999999674,None,386.32851070000015,007,001,2023-11-11_13h59.12.795,untitled,2023.2.3,299.1808428503304,2023-11-11 13h59.27.857571 +0800,
2,condition_2/rightstar.PNG,left,,,,,,,,,,,,,1,5,30,5,386.6687628999998,,,,,,,,,,,,,,,,,,,,,,,,,,,,,,,,,,,,,,,,,,,,,,,,,,,,,,,,,,,,,,,,,,,,,,,,,,,,,,,,,,,,,,,,,,,,,,,,,,,,,,,,,386.5990579999998,386.6687628999998,387.1015733999998,387.10158569999976,387.5982294999999,388.0656954000001,387.8953499999998,387.8953591999998,389.2656917999998,389.2656917999998,389.53220550000015,right,0,0.2628055999998651,None,,007,001,2023-11-11_13h59.12.795,untitled,2023.2.3,299.1808428503304,2023-11-11 13h59.27.857571 +0800,
8,condition_2/rightstar.PNG,space,,,,,,,,,,,,,1,6,31,23,389.60885740000003,,,,,,,,,,,,,,,,,,,,,,,,,,,,,,,,,,,,,,,,,,,,,,,,,,,,,,,,,,,,,,,,,,,,,,,,,,,,,,,,,,,,,,,,,,,,,,,,,,,,,,,,,389.5325751999999,389.60885740000003,390.03391220000003,390.0339257999999,390.53535079999983,391.00240799999983,390.8317766,390.8317867999999,392.1430215999999,392.1430215999999,392.47837290000007,space,1,0.33329830000002403,None,,007,001,2023-11-11_13h59.12.795,untitled,2023.2.3,299.1808428503304,2023-11-11 13h59.27.857571 +0800,
9,condition_2/leftstar.PNG,space,,,,,,,,,,,,,1,7,32,24,392.5583471,,,,,,,,,,,,,,,,,,,,,,,,,,,,,,,,,,,,,,,,,,,,,,,,,,,,,,,,,,,,,,,,,,,,,,,,,,,,,,,,,,,,,,,,,,,,,,,,,,,,,,,,,392.4787301000001,392.5583471,392.9815044000002,392.9815150999998,393.47841149999977,393.94671340000014,393.77855679999993,393.77856789999987,395.0860426999998,395.0860426999998,395.4687395000001,space,1,0.38179470000022775,None,,007,001,2023-11-11_13h59.12.795,untitled,2023.2.3,299.1808428503304,2023-11-11 13h59.27.857571 +0800,
8,condition_2/rightstar.PNG,space,,,,,,,,,,,,,1,8,33,14,395.54569679999986,,,,,,,,,,,,,,,,,,,,,,,,,,,,,,,,,,,,,,,,,,,,,,,,,,,,,,,,,,,,,,,,,,,,,,,,,,,,,,,,,,,,,,,,,,,,,,,,,,,,,,,,,395.4690922,395.54569679999986,395.9714300999999,395.9714419000002,396.4681437999998,396.92942360000006,396.7651520999998,396.7651621,398.07660529999976,398.07660529999976,398.43533979999984,space,1,0.3573851000001014,None,,007,001,2023-11-11_13h59.12.795,untitled,2023.2.3,299.1808428503304,2023-11-11 13h59.27.857571 +0800,
2,condition_2/blank.PNG,space,,,,,,,,,,,,,1,9,34,9,398.5086107000002,,,,,,,,,,,,,,,,,,,,,,,,,,,,,,,,,,,,,,,,,,,,,,,,,,,,,,,,,,,,,,,,,,,,,,,,,,,,,,,,,,,,,,,,,,,,,,,,,,,,,,,,,398.43568670000013,398.5086107000002,398.9382482000001,398.93826119999994,399.43453629999976,399.7672705,399.7354707999998,399.73548219999975,401.1353693000001,401.1353693000001,402.57246050000003,space,1,1.436321499999849,None,401.93474130000004,007,001,2023-11-11_13h59.12.795,untitled,2023.2.3,299.1808428503304,2023-11-11 13h59.27.857571 +0800,
8,condition_2/rightstar.PNG,space,,,,,,,,,,,,,1,10,35,6,402.6455676999999,,,,,,,,,,,,,,,,,,,,,,,,,,,,,,,,,,,,,,,,,,,,,,,,,,,,,,,,,,,,,,,,,,,,,,,,,,,,,,,,,,,,,,,,,,,,,,,,,,,,,,,,,402.5728583,402.6455676999999,403.07498380000015,403.0749956999998,403.5747799999999,,403.8749406000002,403.87495260000014,405.2214573000001,405.2214573000001,405.4717461,space,1,0.24589629999991303,None,,007,001,2023-11-11_13h59.12.795,untitled,2023.2.3,299.1808428503304,2023-11-11 13h59.27.857571 +0800,
1,condition_2/leftstar.PNG,left,,,,,,,,,,,,,1,11,36,0,405.5489054999998,,,,,,,,,,,,,,,,,,,,,,,,,,,,,,,,,,,,,,,,,,,,,,,,,,,,,,,,,,,,,,,,,,,,,,,,,,,,,,,,,,,,,,,,,,,,,,,,,,,,,,,,,405.47210129999985,405.5489054999998,405.97478649999994,405.9747984999999,406.4714739000001,406.93261600000005,406.7683232999998,406.7683344000002,408.07894810000016,408.07894810000016,408.5389378,right,0,0.4587039000002733,None,,007,001,2023-11-11_13h59.12.795,untitled,2023.2.3,299.1808428503304,2023-11-11 13h59.27.857571 +0800,
1,condition_2/rightstar.PNG,right,,,,,,,,,,,,,1,12,37,4,408.60229149999986,,,,,,,,,,,,,,,,,,,,,,,,,,,,,,,,,,,,,,,,,,,,,,,,,,,,,,,,,,,,,,,,,,,,,,,,,,,,,,,,,,,,,,,,,,,,,,,,,,,,,,,,,408.53930249999985,408.60229149999986,409.0415868,409.04159849999996,409.5383032,409.9994293,409.8351412000002,409.8351533,411.14585750000015,411.14585750000015,411.5190888000002,left,0,0.36899899999980335,None,,007,001,2023-11-11_13h59.12.795,untitled,2023.2.3,299.1808428503304,2023-11-11 13h59.27.857571 +0800,
8,condition_2/leftstar.PNG,space,,,,,,,,,,,,,1,13,38,18,411.5957035000001,,,,,,,,,,,,,,,,,,,,,,,,,,,,,,,,,,,,,,,,,,,,,,,,,,,,,,,,,,,,,,,,,,,,,,,,,,,,,,,,,,,,,,,,,,,,,,,,,,,,,,,,,411.51951959999997,411.5957035000001,412.0220362,412.0220497,412.5214683999998,412.97921940000015,412.81862539999975,412.8186390000001,414.12708220000013,414.12708220000013,414.68550589999995,space,1,0.5554379000000154,None,,007,001,2023-11-11_13h59.12.795,untitled,2023.2.3,299.1808428503304,2023-11-11 13h59.27.857571 +0800,
2,condition_2/rightstar.PNG,right,,,,,,,,,,,,,1,14,39,13,414.76183690000016,,,,,,,,,,,,,,,,,,,,,,,,,,,,,,,,,,,,,,,,,,,,,,,,,,,,,,,,,,,,,,,,,,,,,,,,,,,,,,,,,,,,,,,,,,,,,,,,,,,,,,,,,414.6858524999998,414.76183690000016,415.18859569999995,415.18860700000005,415.68488990000014,416.1525821,415.98555769999984,415.9855742,417.2924828,417.2924828,417.5788815000001,right,1,0.2856639000001451,None,,007,001,2023-11-11_13h59.12.795,untitled,2023.2.3,299.1808428503304,2023-11-11 13h59.27.857571 +0800,
9,condition_2/leftstar.PNG,space,,,,,,,,,,,,,1,15,40,3,417.65211409999984,,,,,,,,,,,,,,,,,,,,,,,,,,,,,,,,,,,,,,,,,,,,,,,,,,,,,,,,,,,,,,,,,,,,,,,,,,,,,,,,,,,,,,,,,,,,,,,,,,,,,,,,,417.57925019999993,417.65211409999984,418.0815140999998,418.08152519999976,418.5814746000001,419.0388226,418.8782709000002,418.8782799999999,420.1890042,420.1890042,420.6955840999999,space,1,0.505500000000211,None,,007,001,2023-11-11_13h59.12.795,untitled,2023.2.3,299.1808428503304,2023-11-11 13h59.27.857571 +0800,
9,condition_2/leftstar.PNG,space,,,,,,,,,,,,,1,16,41,19,420.7788252999999,,,,,,,,,,,,,,,,,,,,,,,,,,,,,,,,,,,,,,,,,,,,,,,,,,,,,,,,,,,,,,,,,,,,,,,,,,,,,,,,,,,,,,,,,,,,,,,,,,,,,,,,,420.69593350000014,420.7788252999999,421.19822710000017,421.1982383999998,421.6979492999999,422.17250650000005,421.9949664999999,421.99497629999996,423.3030770999999,423.3030770999999,423.87878020000016,space,1,0.5736189999997805,None,,007,001,2023-11-11_13h59.12.795,untitled,2023.2.3,299.1808428503304,2023-11-11 13h59.27.857571 +0800,
9,condition_2/rightstar.PNG,space,,,,,,,,,,,,,1,17,42,7,423.9523383999999,,,,,,,,,,,,,,,,,,,,,,,,,,,,,,,,,,,,,,,,,,,,,,,,,,,,,,,,,,,,,,,,,,,,,,,,,,,,,,,,,,,,,,,,,,,,,,,,,,,,,,,,,423.87915539999995,423.9523383999999,424.3816007999999,424.38161119999995,424.87822800000004,425.3460009999999,425.1751909999998,425.1752001,426.48618179999994,426.48618179999994,426.8454536999998,space,1,0.3565488999997797,None,,007,001,2023-11-11_13h59.12.795,untitled,2023.2.3,299.1808428503304,2023-11-11 13h59.27.857571 +0800,
9,condition_2/blank.PNG,space,,,,,,,,,,,,,1,18,43,11,426.90962649999983,,,,,,,,,,,,,,,,,,,,,,,,,,,,,,,,,,,,,,,,,,,,,,,,,,,,,,,,,,,,,,,,,,,,,,,,,,,,,,,,,,,,,,,,,,,,,,,,,,,,,,,,,426.84580689999984,426.90962649999983,427.3483074999999,427.34831840000015,427.8448849000001,428.1738722,428.1427113,428.14272470000014,429.5488442999999,429.5488442999999,430.1156396000001,space,1,0.5661261000000195,None,,007,001,2023-11-11_13h59.12.795,untitled,2023.2.3,299.1808428503304,2023-11-11 13h59.27.857571 +0800,
1,condition_2/rightstar.PNG,right,,,,,,,,,,,,,1,19,44,21,430.1860732,,,,,,,,,,,,,,,,,,,,,,,,,,,,,,,,,,,,,,,,,,,,,,,,,,,,,,,,,,,,,,,,,,,,,,,,,,,,,,,,,,,,,,,,,,,,,,,,,,,,,,,,,430.1160186000002,430.1860732,430.6182082,430.6182205,431.1181274999999,431.5726906,431.41494729999977,431.41495669999995,432.77576180000005,432.77576180000005,433.1894520000001,right,1,0.4122434999999314,None,,007,001,2023-11-11_13h59.12.795,untitled,2023.2.3,299.1808428503304,2023-11-11 13h59.27.857571 +0800,
8,condition_2/blank.PNG,space,,,,,,,,,,,,,1,20,45,10,433.2957574000002,,,,,,,,,,,,,,,,,,,,,,,,,,,,,,,,,,,,,,,,,,,,,,,,,,,,,,,,,,,,,,,,,,,,,,,,,,,,,,,,,,,,,,,,,,,,,,,,,,,,,,,,,433.18985470000007,433.2957574000002,433.69147569999996,433.69148719999976,434.1915626,,434.49187429999984,434.49188909999975,435.89919499999996,435.89919499999996,436.6287768000002,space,1,0.7266670999997586,None,,007,001,2023-11-11_13h59.12.795,untitled,2023.2.3,299.1808428503304,2023-11-11 13h59.27.857571 +0800,
2,condition_2/leftstar.PNG,left,,,,,,,,,,,,,1,21,46,17,436.6956783999999,,,,,,,,,,,,,,,,,,,,,,,,,,,,,,,,,,,,,,,,,,,,,,,,,,,,,,,,,,,,,,,,,,,,,,,,,,,,,,,,,,,,,,,,,,,,,,,,,,,,,,,,,436.629132,436.6956783999999,437.1314935999999,437.1315049,437.6279878999999,438.09251630000017,437.92495199999985,437.9249629000001,439.2740441000001,439.2740441000001,439.51581739999983,left,1,0.23828770000000077,None,,007,001,2023-11-11_13h59.12.795,untitled,2023.2.3,299.1808428503304,2023-11-11 13h59.27.857571 +0800,
2,condition_2/leftstar.PNG,left,,,,,,,,,,,,,1,22,47,1,439.59226679999983,,,,,,,,,,,,,,,,,,,,,,,,,,,,,,,,,,,,,,,,,,,,,,,,,,,,,,,,,,,,,,,,,,,,,,,,,,,,,,,,,,,,,,,,,,,,,,,,,,,,,,,,,439.5161812000001,439.59226679999983,440.0322213999998,440.03229569999985,440.51811469999984,440.9759061,440.8149493000001,440.8149588000001,442.1258154000002,442.1258154000002,442.5852583000001,left,1,0.45800799999960873,None,,007,001,2023-11-11_13h59.12.795,untitled,2023.2.3,299.1808428503304,2023-11-11 13h59.27.857571 +0800,
1,condition_2/leftstar.PNG,left,,,,,,,,,,,,,1,23,48,16,442.6558710999998,,,,,,,,,,,,,,,,,,,,,,,,,,,,,,,,,,,,,,,,,,,,,,,,,,,,,,,,,,,,,,,,,,,,,,,,,,,,,,,,,,,,,,,,,,,,,,,,,,,,,,,,,442.58561150000014,442.6558710999998,443.08835580000004,443.0883687999999,443.5849724999998,444.0426131999998,443.8817076,443.88171980000016,445.1938795000001,445.1938795000001,445.68535919999977,left,1,0.4879682999999204,None,,007,001,2023-11-11_13h59.12.795,untitled,2023.2.3,299.1808428503304,2023-11-11 13h59.27.857571 +0800,
2,condition_2/leftstar.PNG,left,,,,,,,,,,,,,1,24,49,22,445.7590129,,,,,,,,,,,,,,,,,,,,,,,,,,,,,,,,,,,,,,,,,,,,,,,,,,,,,,,,,,,,,,,,,,,,,,,,,,,,,,,,,,,,,,,,,,,,,,,,,,,,,,,,,445.6857556,445.7590129,446.1880268,446.18803979999984,446.68494009999995,447.1517752999998,446.9817592999998,446.9817705999999,448.2929095999998,448.2929095999998,448.59580749999986,left,1,0.3022297000002254,None,,007,001,2023-11-11_13h59.12.795,untitled,2023.2.3,299.1808428503304,2023-11-11 13h59.27.857571 +0800,
