stimuli,star,CorrectAns,trials_3.thisRepN,trials_3.thisTrialN,trials_3.thisN,trials_3.thisIndex,trials.thisRepN,trials.thisTrialN,trials.thisN,trials.thisIndex,trials_4.thisRepN,trials_4.thisTrialN,trials_4.thisN,trials_4.thisIndex,trials_2.thisRepN,trials_2.thisTrialN,trials_2.thisN,trials_2.thisIndex,thisRow.t,notes,routine_21.started,text_9.started,key_resp_8.started,routine_21.stopped,key_resp_8.keys,key_resp_8.rt,key_resp_8.duration,introduction.started,text_6.started,key_resp_5.started,introduction.stopped,key_resp_5.keys,key_resp_5.rt,key_resp_5.duration,routine_14.started,image_6.started,routine_14.stopped,routine_16.started,text_4.started,text_4.stopped,routine_16.stopped,routine_17.started,image_7.started,key_resp_3.started,image_7.stopped,routine_17.stopped,key_resp_3.keys,key_resp_3.rt,key_resp_3.duration,routine_20.started,text_8.started,key_resp_7.started,routine_20.stopped,key_resp_7.keys,key_resp_7.rt,key_resp_7.duration,routine_18.started,text_5.started,key_resp_4.started,routine_18.stopped,key_resp_4.keys,key_resp_4.rt,key_resp_4.duration,trial.started,image_3.started,trial.stopped,routine.started,text_3.started,text_3.stopped,routine.stopped,routine_1.started,image_2.started,key_resp.started,routine_1.stopped,key_resp.keys,key_resp.corr,key_resp.rt,key_resp.duration,image_2.stopped,routine_22.started,text_10.started,key_resp_9.started,routine_22.stopped,key_resp_9.keys,key_resp_9.rt,key_resp_9.duration,routine_19.started,text_7.started,key_resp_6.started,routine_19.stopped,key_resp_6.keys,key_resp_6.rt,key_resp_6.duration,routine_23.started,image_8.started,routine_23.stopped,routine_24.started,text_11.started,text_11.stopped,routine_24.stopped,routine_25.started,image_9.started,key_resp_10.started,image_9.stopped,routine_25.stopped,key_resp_10.keys,key_resp_10.rt,key_resp_10.duration,routine_26.started,text_12.started,key_resp_11.started,text_12.stopped,routine_26.stopped,key_resp_11.keys,key_resp_11.rt,key_resp_11.duration,routine_27.started,text_13.started,key_resp_12.started,text_13.stopped,routine_27.stopped,key_resp_12.keys,key_resp_12.rt,key_resp_12.duration,routine_10.started,image_4.started,routine_10.stopped,routine_11.started,text.started,text.stopped,routine_11.stopped,routine_12.started,image_5.started,key_resp_2.started,routine_12.stopped,key_resp_2.keys,key_resp_2.corr,key_resp_2.rt,key_resp_2.duration,image_5.stopped,participant,session,date,expName,psychopyVersion,frameRate,expStart,
,,,,,,,,,,,,,,,,,,,,,0.005166879449461703,0.024288479896085846,0.024288479896085846,11.977624611605279,space,11.946583372419354,None,,,,,,,,,,,,,,,,,,,,,,,,,,,,,,,,,,,,,,,,,,,,,,,,,,,,,,,,,,,,,,,,,,,,,,,,,,,,,,,,,,,,,,,,,,,,,,,,,,,,,,,,,,,,,,,,,,008,001,2023-11-09_18h13.39.526,untitled,2023.2.2,59.88414063626685,2023-11-09 18h13.49.326601 +0800,
,,,,,,,,,,,,,,,,,,,,,,,,,,,,11.977678996647,11.992486451063542,11.992486451063542,66.37813949673114,space,54.3690812323232,None,,,,,,,,,,,,,,,,,,,,,,,,,,,,,,,,,,,,,,,,,,,,,,,,,,,,,,,,,,,,,,,,,,,,,,,,,,,,,,,,,,,,,,,,,,,,,,,,,,,,,,,,,,,008,001,2023-11-09_18h13.39.526,untitled,2023.2.2,59.88414063626685,2023-11-09 18h13.49.326601 +0800,
2,test/leftstar.PNG,space,0,0,0,4,,,,,,,,,,,,,66.52810489762851,,,,,,,,,,,,,,,,66.39321647259817,66.52810489762851,66.89306218133288,66.89308141140305,67.39337001268882,67.90612540830102,67.67784765037095,67.6778855095713,69.00498960224104,69.00498960224104,69.8093545877689,76.3108618947449,space,7.302321940818956,None,,,,,,,,,,,,,,,,,,,,,,,,,,,,,,,,,,,,,,,,,,,,,,,,,,,,,,,,,,,,,,,,,,,,,,,,,,,,,,,,,,,,,,,,,,,,008,001,2023-11-09_18h13.39.526,untitled,2023.2.2,59.88414063626685,2023-11-09 18h13.49.326601 +0800,
8,test/rightstar.PNG,right,0,1,1,1,,,,,,,,,,,,,76.41271456176037,,,,,,,,,,,,,,,,76.31138651509377,76.41271456176037,76.82627134049517,76.82628696492702,77.32660080567985,77.83388614776936,77.6108398703052,77.61087202057865,78.9297904132693,78.9297904132693,79.74278248897804,88.77780855924402,left,9.840758794526892,None,,,,,,,,,,,,,,,,,,,,,,,,,,,,,,,,,,,,,,,,,,,,,,,,,,,,,,,,,,,,,,,,,,,,,,,,,,,,,,,,,,,,,,,,,,,,008,001,2023-11-09_18h13.39.526,untitled,2023.2.2,59.88414063626685,2023-11-09 18h13.49.326601 +0800,
1,test/leftstar.PNG,space,0,2,2,0,,,,,,,,,,,,,88.91078900076059,,,,,,,,,,,,,,,,88.77866459783172,88.91078900076059,89.29280876506596,89.29282078385972,89.79339152632974,90.30004437939601,90.07699810193208,90.07701913482106,91.39785783028924,91.39785783028924,92.20969760414368,98.5782458029621,space,7.163977812104804,None,,,,,,,,,,,,,,,,,,,,,,,,,,,,,,,,,,,,,,,,,,,,,,,,,,,,,,,,,,,,,,,,,,,,,,,,,,,,,,,,,,,,,,,,,,,,008,001,2023-11-09_18h13.39.526,untitled,2023.2.2,59.88414063626685,2023-11-09 18h13.49.326601 +0800,
1,test/blank.PNG,space,0,3,3,2,,,,,,,,,,,,,98.68826043283889,,,,,,,,,,,,,,,,98.57924065861789,98.68826043283889,99.09296506947908,99.09297738874284,99.59329333278447,99.98602544799314,99.87757055708016,99.87760030359482,101.19308793159871,101.19308793159871,101.99298523100583,107.17754282371357,space,5.976396290880075,None,,,,,,,,,,,,,,,,,,,,,,,,,,,,,,,,,,,,,,,,,,,,,,,,,,,,,,,,,,,,,,,,,,,,,,,,,,,,,,,,,,,,,,,,,,,,008,001,2023-11-09_18h13.39.526,untitled,2023.2.2,59.88414063626685,2023-11-09 18h13.49.326601 +0800,
9,test/rightstar.PNG,right,0,4,4,3,,,,,,,,,,,,,107.2812019154353,,,,,,,,,,,,,,,,107.17820836441956,107.2812019154353,107.69304872028397,107.69306524612534,108.19325439189265,108.707177713791,108.4775881045191,108.47761755056376,109.79929545830828,109.79929545830828,110.60959021622125,111.44423174517988,right,1.6423558518456502,None,,,,,,,,,,,,,,,,,,,,,,,,,,,,,,,,,,,,,,,,,,,,,,,,,,,,,,,,,,,,,,,,,,,,,,,,,,,,,,,,,,,,,,,,,,,,008,001,2023-11-09_18h13.39.526,untitled,2023.2.2,59.88414063626685,2023-11-09 18h13.49.326601 +0800,
8,test/leftstar.PNG,left,0,5,5,5,,,,,,,,,,,,,111.5492723972477,,,,,,,,,,,,,,,,111.44491891971484,111.5492723972477,111.95973433658219,111.95975236477284,112.46013140748187,112.96742335990803,112.74449456615321,112.74453482911235,114.06405295961304,114.06405295961304,114.87662407706944,115.02787789266085,left,0.954987213505774,None,,,,,,,,,,,,,,,,,,,,,,,,,,,,,,,,,,,,,,,,,,,,,,,,,,,,,,,,,,,,,,,,,,,,,,,,,,,,,,,,,,,,,,,,,,,,008,001,2023-11-09_18h13.39.526,untitled,2023.2.2,59.88414063626685,2023-11-09 18h13.49.326601 +0800,
,,,,,,,,,,,,,,,,,,,,,,,,,,,,,,,,,,,,,,,,,,,,,,,,,,115.0284845412773,115.04287344120007,115.04287344120007,157.37794328992254,space,42.31881352871483,None,,,,,,,,,,,,,,,,,,,,,,,,,,,,,,,,,,,,,,,,,,,,,,,,,,,,,,,,,,,,,,,,,,,,,,,,,,,,,,,,,,,,,008,001,2023-11-09_18h13.39.526,untitled,2023.2.2,59.88414063626685,2023-11-09 18h13.49.326601 +0800,
,,,,,,,,,,,,,,,,,,,,,,,,,,,,,,,,,,,,,,,,,,,,,,,,,,,,,,,,,157.3779949707357,157.39331021918974,157.39331021918974,166.89450894363517,space,9.488592512111154,None,,,,,,,,,,,,,,,,,,,,,,,,,,,,,,,,,,,,,,,,,,,,,,,,,,,,,,,,,,,,,,,,,,,,,,,,,,,,,,008,001,2023-11-09_18h13.39.526,untitled,2023.2.2,59.88414063626685,2023-11-09 18h13.49.326601 +0800,
9,condition_1/leftstar.PNG,left,,,,,0,0,0,3,,,,,,,,,167.04439922707138,,,,,,,,,,,,,,,,,,,,,,,,,,,,,,,,,,,,,,,,,,,,,166.91684316766123,167.04439922707138,167.4099283048904,167.409944530262,167.90994287767785,168.425178351388,168.19399444912005,168.19401908764735,169.5242336441495,169.5242336441495,170.27785317901612,left,1,0.7504796249895662,None,,,,,,,,,,,,,,,,,,,,,,,,,,,,,,,,,,,,,,,,,,,,,,,,,,,,,,,,,,,,,,,008,001,2023-11-09_18h13.39.526,untitled,2023.2.2,59.88414063626685,2023-11-09 18h13.49.326601 +0800,
8,condition_1/blank.PNG,space,,,,,0,1,1,24,,,,,,,,,170.38688767625945,,,,,,,,,,,,,,,,,,,,,,,,,,,,,,,,,,,,,,,,,,,,,170.27925036379384,170.38688767625945,170.79305199540522,170.79306461513875,171.2934610850989,171.68178921379376,171.57813432864964,171.57817308925974,172.8932256369285,172.8932256369285,173.7108554646902,space,1,0.8042952765240443,None,173.69322960313048,,,,,,,,,,,,,,,,,,,,,,,,,,,,,,,,,,,,,,,,,,,,,,,,,,,,,,,,,,,,,,008,001,2023-11-09_18h13.39.526,untitled,2023.2.2,59.88414063626685,2023-11-09 18h13.49.326601 +0800,
2,condition_1/rightstar.PNG,space,,,,,0,2,2,5,,,,,,,,,173.81675636192313,,,,,,,,,,,,,,,,,,,,,,,,,,,,,,,,,,,,,,,,,,,,,173.71156036694583,173.81675636192313,174.22661165264117,174.22662637566373,174.72672447906803,175.23597339159255,175.0111113748569,175.0111420227811,176.32940268698167,176.32940268698167,177.16050287835083,space,1,0.8255490109884249,None,177.1437958535762,,,,,,,,,,,,,,,,,,,,,,,,,,,,,,,,,,,,,,,,,,,,,,,,,,,,,,,,,,,,,,008,001,2023-11-09_18h13.39.526,untitled,2023.2.2,59.88414063626685,2023-11-09 18h13.49.326601 +0800,
1,condition_1/leftstar.PNG,space,,,,,0,3,3,22,,,,,,,,,177.25948726022875,,,,,,,,,,,,,,,,,,,,,,,,,,,,,,,,,,,,,,,,,,,,,177.16097641882607,177.25948726022875,177.6766025033346,177.67661902917598,178.1599896758562,178.66499505276397,178.44418667470336,178.44421341651946,179.77970572584354,179.77970572584354,180.62765776845254,space,1,0.8457802465716213,None,180.59336003708995,,,,,,,,,,,,,,,,,,,,,,,,,,,,,,,,,,,,,,,,,,,,,,,,,,,,,,,,,,,,,,008,001,2023-11-09_18h13.39.526,untitled,2023.2.2,59.88414063626685,2023-11-09 18h13.49.326601 +0800,
2,condition_1/rightstar.PNG,space,,,,,0,4,4,13,,,,,,,,,180.72608537970837,,,,,,,,,,,,,,,,,,,,,,,,,,,,,,,,,,,,,,,,,,,,,180.62811748731497,180.72608537970837,181.14312250065427,181.14315314857845,181.64332606897415,182.14045072279532,181.92755672044382,181.92757174393614,183.24776533064755,183.24776533064755,184.32791596219022,space,1,1.0750465502908355,None,184.05981152728532,,,,,,,,,,,,,,,,,,,,,,,,,,,,,,,,,,,,,,,,,,,,,,,,,,,,,,,,,,,,,,008,001,2023-11-09_18h13.39.526,untitled,2023.2.2,59.88414063626685,2023-11-09 18h13.49.326601 +0800,
2,condition_1/leftstar.PNG,space,,,,,0,5,5,17,,,,,,,,,184.429736779402,,,,,,,,,,,,,,,,,,,,,,,,,,,,,,,,,,,,,,,,,,,,,184.32873053593903,184.429736779402,184.84338039392196,184.8433984221126,185.3432609571587,185.84639771210254,185.62730591826448,185.62733266008058,186.9471903215058,186.9471903215058,187.96047589615887,space,1,0.9984673033220588,None,187.75983204937575,,,,,,,,,,,,,,,,,,,,,,,,,,,,,,,,,,,,,,,,,,,,,,,,,,,,,,,,,,,,,,008,001,2023-11-09_18h13.39.526,untitled,2023.2.2,59.88414063626685,2023-11-09 18h13.49.326601 +0800,
2,condition_1/leftstar.PNG,space,,,,,0,6,6,1,,,,,,,,,188.05774129005522,,,,,,,,,,,,,,,,,,,,,,,,,,,,,,,,,,,,,,,,,,,,,187.9609284037449,188.05774129005522,188.47642498575033,188.47643610313457,188.9598812663362,189.46399154357664,189.24378891272295,189.2438081427929,190.5636108182366,190.5636108182366,191.2106828447645,space,1,0.6387919790176966,None,,,,,,,,,,,,,,,,,,,,,,,,,,,,,,,,,,,,,,,,,,,,,,,,,,,,,,,,,,,,,,,008,001,2023-11-09_18h13.39.526,untitled,2023.2.2,59.88414063626685,2023-11-09 18h13.49.326601 +0800,
9,condition_1/leftstar.PNG,left,,,,,0,7,7,19,,,,,,,,,191.30939710425196,,,,,,,,,,,,,,,,,,,,,,,,,,,,,,,,,,,,,,,,,,,,,191.21123991585637,191.30939710425196,191.72671756826162,191.726734094103,192.22663929586702,192.7366847539497,192.51114367536525,192.51117432328942,193.82954285616415,193.82954285616415,194.41038501905427,left,1,0.5728568762974646,None,,,,,,,,,,,,,,,,,,,,,,,,,,,,,,,,,,,,,,,,,,,,,,,,,,,,,,,,,,,,,,,008,001,2023-11-09_18h13.39.526,untitled,2023.2.2,59.88414063626685,2023-11-09 18h13.49.326601 +0800,
9,condition_1/blank.PNG,space,,,,,0,8,8,11,,,,,,,,,194.5084857191191,,,,,,,,,,,,,,,,,,,,,,,,,,,,,,,,,,,,,,,,,,,,,194.41088500087585,194.5084857191191,194.92660483197574,194.92662135781734,195.40986130011493,195.79744155936646,195.69395133169746,195.69397867445332,197.01017120471283,197.01017120471283,198.27824378981427,space,1,1.2647322618379349,None,197.8101682601084,,,,,,,,,,,,,,,,,,,,,,,,,,,,,,,,,,,,,,,,,,,,,,,,,,,,,,,,,,,,,,008,001,2023-11-09_18h13.39.526,untitled,2023.2.2,59.88414063626685,2023-11-09 18h13.49.326601 +0800,
8,condition_1/rightstar.PNG,right,,,,,0,9,9,23,,,,,,,,,198.38872805405822,,,,,,,,,,,,,,,,,,,,,,,,,,,,,,,,,,,,,,,,,,,,,198.27932728407404,198.38872805405822,198.79340654982207,198.793425779892,199.29325946983295,199.787693416195,199.57700846814168,199.57702168881474,200.89792077872175,200.89792077872175,201.745071167785,right,1,0.8319514224392606,None,201.71013463753275,,,,,,,,,,,,,,,,,,,,,,,,,,,,,,,,,,,,,,,,,,,,,,,,,,,,,,,,,,,,,,008,001,2023-11-09_18h13.39.526,untitled,2023.2.2,59.88414063626685,2023-11-09 18h13.49.326601 +0800,
2,condition_1/rightstar.PNG,space,,,,,0,10,10,21,,,,,,,,,201.8523608366404,,,,,,,,,,,,,,,,,,,,,,,,,,,,,,,,,,,,,,,,,,,,,201.746154662045,201.8523608366404,202.260040124743,202.26005574917508,202.7603999373821,203.26902657685832,203.04406089802637,203.04408343326463,204.36336479352758,204.36336479352758,204.99383856536474,space,1,0.6150776969948311,None,,,,,,,,,,,,,,,,,,,,,,,,,,,,,,,,,,,,,,,,,,,,,,,,,,,,,,,,,,,,,,,008,001,2023-11-09_18h13.39.526,untitled,2023.2.2,59.88414063626685,2023-11-09 18h13.49.326601 +0800,
8,condition_1/rightstar.PNG,right,,,,,0,11,11,6,,,,,,,,,205.0928587031542,,,,,,,,,,,,,,,,,,,,,,,,,,,,,,,,,,,,,,,,,,,,,204.99430729832238,205.0928587031542,205.50980237797853,205.50981619959134,205.99333437696532,206.50169449968917,206.2774796949991,206.27750343211687,207.59720454875287,207.59720454875287,208.76146420157215,right,1,1.1487752398425073,None,208.40973510278036,,,,,,,,,,,,,,,,,,,,,,,,,,,,,,,,,,,,,,,,,,,,,,,,,,,,,,,,,,,,,,008,001,2023-11-09_18h13.39.526,untitled,2023.2.2,59.88414063626685,2023-11-09 18h13.49.326601 +0800,
1,condition_1/rightstar.PNG,space,,,,,0,12,12,4,,,,,,,,,208.87231323620745,,,,,,,,,,,,,,,,,,,,,,,,,,,,,,,,,,,,,,,,,,,,,208.76244944219275,208.87231323620745,209.27681745946143,209.27683849235063,209.77662921510364,210.29853782359487,210.06082651442057,210.06085175388762,211.3793681179261,211.3793681179261,211.51092673613744,space,1,0.11844461183954991,None,,,,,,,,,,,,,,,,,,,,,,,,,,,,,,,,,,,,,,,,,,,,,,,,,,,,,,,,,,,,,,,008,001,2023-11-09_18h13.39.526,untitled,2023.2.2,59.88414063626685,2023-11-09 18h13.49.326601 +0800,
1,condition_1/leftstar.PNG,space,,,,,0,13,13,0,,,,,,,,,211.61178635031592,,,,,,,,,,,,,,,,,,,,,,,,,,,,,,,,,,,,,,,,,,,,,211.5113696286885,211.61178635031592,212.0273950376204,212.02742929118267,212.52682339374087,213.02970865542443,212.81046061726715,212.81047924639756,214.13138704993003,214.13138704993003,214.52730144126372,space,1,0.3908520753902849,None,,,,,,,,,,,,,,,,,,,,,,,,,,,,,,,,,,,,,,,,,,,,,,,,,,,,,,,,,,,,,,,008,001,2023-11-09_18h13.39.526,untitled,2023.2.2,59.88414063626685,2023-11-09 18h13.49.326601 +0800,
8,condition_1/leftstar.PNG,left,,,,,0,14,14,2,,,,,,,,,214.62562629183253,,,,,,,,,,,,,,,,,,,,,,,,,,,,,,,,,,,,,,,,,,,,,214.52788345135286,214.62562629183253,215.0433959582599,215.04341188316175,215.54337988312318,216.04167937403713,215.82717485331818,215.8271874730517,217.13027651338393,217.13027651338393,217.58030762703652,left,1,0.43191638765551943,None,,,,,,,,,,,,,,,,,,,,,,,,,,,,,,,,,,,,,,,,,,,,,,,,,,,,,,,,,,,,,,,008,001,2023-11-09_18h13.39.526,untitled,2023.2.2,59.88414063626685,2023-11-09 18h13.49.326601 +0800,
8,condition_1/blank.PNG,space,,,,,0,15,15,10,,,,,,,,,217.68865885585296,,,,,,,,,,,,,,,,,,,,,,,,,,,,,,,,,,,,,,,,,,,,,217.58144580680823,217.68865885585296,218.0933211262452,218.09333765208657,218.59332848775625,218.97420045725517,218.87747500766955,218.8775002471366,220.1934572090379,220.1934572090379,220.94465135131804,space,1,0.7365456364116199,None,,,,,,,,,,,,,,,,,,,,,,,,,,,,,,,,,,,,,,,,,,,,,,,,,,,,,,,,,,,,,,,008,001,2023-11-09_18h13.39.526,untitled,2023.2.2,59.88414063626685,2023-11-09 18h13.49.326601 +0800,
8,condition_1/leftstar.PNG,left,,,,,0,16,16,18,,,,,,,,,221.05273245774424,,,,,,,,,,,,,,,,,,,,,,,,,,,,,,,,,,,,,,,,,,,,,220.94562397220534,221.05273245774424,221.45980059018302,221.4598126089768,221.96001767964572,222.46655064524407,222.24415728875238,222.2441816268099,223.5637953067212,223.5637953067212,224.3107753594295,left,1,0.743783354030711,None,,,,,,,,,,,,,,,,,,,,,,,,,,,,,,,,,,,,,,,,,,,,,,,,,,,,,,,,,,,,,,,008,001,2023-11-09_18h13.39.526,untitled,2023.2.2,59.88414063626685,2023-11-09 18h13.49.326601 +0800,
1,condition_1/blank.PNG,space,,,,,0,17,17,8,,,,,,,,,224.4113188793317,,,,,,,,,,,,,,,,,,,,,,,,,,,,,,,,,,,,,,,,,,,,,224.31131800796902,224.4113188793317,224.82679475896452,224.8268115852759,225.3267041673064,225.68674546388183,225.61071487484992,225.61075153217098,226.90974186335166,226.90974186335166,228.36083964495288,space,1,1.4447410415666582,None,227.70985339775802,,,,,,,,,,,,,,,,,,,,,,,,,,,,,,,,,,,,,,,,,,,,,,,,,,,,,,,,,,,,,,008,001,2023-11-09_18h13.39.526,untitled,2023.2.2,59.88414063626685,2023-11-09 18h13.49.326601 +0800,
1,condition_1/leftstar.PNG,space,,,,,0,18,18,16,,,,,,,,,228.46163465811492,,,,,,,,,,,,,,,,,,,,,,,,,,,,,,,,,,,,,,,,,,,,,228.3614183498737,228.46163465811492,228.87649427409656,228.8765065933601,229.37685889425302,229.88283148359096,229.6609564375815,229.6609840808071,230.9646178729679,230.9646178729679,232.16062516957777,space,1,1.188957673113464,None,231.77695853005343,,,,,,,,,,,,,,,,,,,,,,,,,,,,,,,,,,,,,,,,,,,,,,,,,,,,,,,,,,,,,,008,001,2023-11-09_18h13.39.526,untitled,2023.2.2,59.88414063626685,2023-11-09 18h13.49.326601 +0800,
9,condition_1/rightstar.PNG,right,,,,,0,19,19,15,,,,,,,,,232.25854378491658,,,,,,,,,,,,,,,,,,,,,,,,,,,,,,,,,,,,,,,,,,,,,232.16109420300518,232.25854378491658,232.676833865115,232.67685159283565,233.1600702017745,233.66491032026784,233.44411336006124,233.44413889999805,234.76408249579868,234.76408249579868,235.54401537684475,right,1,0.7747404616600306,None,,,,,,,,,,,,,,,,,,,,,,,,,,,,,,,,,,,,,,,,,,,,,,,,,,,,,,,,,,,,,,,008,001,2023-11-09_18h13.39.526,untitled,2023.2.2,59.88414063626685,2023-11-09 18h13.49.326601 +0800,
9,condition_1/leftstar.PNG,left,,,,,0,20,20,20,,,,,,,,,235.6434351395278,,,,,,,,,,,,,,,,,,,,,,,,,,,,,,,,,,,,,,,,,,,,,235.54459949022294,235.6434351395278,236.06024240104261,236.06026283299207,236.54351088797557,237.04869354209177,236.82753962370953,236.82756516364634,238.14795645951585,238.14795645951585,238.9273644197433,left,1,0.766510292143721,None,,,,,,,,,,,,,,,,,,,,,,,,,,,,,,,,,,,,,,,,,,,,,,,,,,,,,,,,,,,,,,,008,001,2023-11-09_18h13.39.526,untitled,2023.2.2,59.88414063626685,2023-11-09 18h13.49.326601 +0800,
9,condition_1/rightstar.PNG,right,,,,,0,21,21,7,,,,,,,,,239.02788961098463,,,,,,,,,,,,,,,,,,,,,,,,,,,,,,,,,,,,,,,,,,,,,238.92793441103868,239.02788961098463,239.44329848584243,239.44331230745524,239.92675356454902,240.4370466097837,240.2112408172659,240.21127146519007,241.54646841265685,241.54646841265685,242.22751997298178,right,1,0.6797514273066554,None,,,,,,,,,,,,,,,,,,,,,,,,,,,,,,,,,,,,,,,,,,,,,,,,,,,,,,,,,,,,,,,008,001,2023-11-09_18h13.39.526,untitled,2023.2.2,59.88414063626685,2023-11-09 18h13.49.326601 +0800,
2,condition_1/blank.PNG,space,,,,,0,22,22,9,,,,,,,,,242.32831318332478,,,,,,,,,,,,,,,,,,,,,,,,,,,,,,,,,,,,,,,,,,,,,242.22808095018195,242.32831318332478,242.7438569691426,242.74388701612725,243.24357768242203,243.62805709287613,243.52767162011241,243.52770046521755,244.82698645872551,244.82698645872551,245.96201820787178,space,1,1.1271997021742663,None,245.62700604935935,,,,,,,,,,,,,,,,,,,,,,,,,,,,,,,,,,,,,,,,,,,,,,,,,,,,,,,,,,,,,,008,001,2023-11-09_18h13.39.526,untitled,2023.2.2,59.88414063626685,2023-11-09 18h13.49.326601 +0800,
1,condition_1/rightstar.PNG,space,,,,,0,23,23,12,,,,,,,,,246.0719366873982,,,,,,,,,,,,,,,,,,,,,,,,,,,,,,,,,,,,,,,,,,,,,245.96330271645775,246.0719366873982,246.47689762481605,246.47691865770503,246.97695546526097,247.48743690508854,247.2612522200966,247.26128316849054,248.57968204881968,248.57968204881968,249.44472271290624,space,1,0.8621937123079988,None,249.39325162757018,,,,,,,,,,,,,,,,,,,,,,,,,,,,,,,,,,,,,,,,,,,,,,,,,,,,,,,,,,,,,,008,001,2023-11-09_18h13.39.526,untitled,2023.2.2,59.88414063626685,2023-11-09 18h13.49.326601 +0800,
8,condition_1/rightstar.PNG,right,,,,,0,24,24,14,,,,,,,,,249.54717511773174,,,,,,,,,,,,,,,,,,,,,,,,,,,,,,,,,,,,,,,,,,,,,249.44557154021754,249.54717511773174,249.96005223367774,249.9600657548208,250.45986308791066,250.96947076142965,250.74407511024992,250.7440880304532,252.0648458995331,252.0648458995331,253.1112135045571,right,1,1.032776452538883,None,252.8765273257793,,,,,,,,,,,,,,,,,,,,,,,,,,,,,,,,,,,,,,,,,,,,,,,,,,,,,,,,,,,,,,008,001,2023-11-09_18h13.39.526,untitled,2023.2.2,59.88414063626685,2023-11-09 18h13.49.326601 +0800,
2,condition_1/rightstar.PNG,space,,,,,1,0,25,21,,,,,,,,,253.21112784060438,,,,,,,,,,,,,,,,,,,,,,,,,,,,,,,,,,,,,,,,,,,,,253.11201966515046,253.21112784060438,253.62674974858191,253.6267743871092,254.12681209607467,254.62369877777883,254.41051121638907,254.41052353565283,255.72951464204584,255.72951464204584,256.8446105174662,space,1,1.1122633461945952,None,256.5432792257252,,,,,,,,,,,,,,,,,,,,,,,,,,,,,,,,,,,,,,,,,,,,,,,,,,,,,,,,,,,,,,008,001,2023-11-09_18h13.39.526,untitled,2023.2.2,59.88414063626685,2023-11-09 18h13.49.326601 +0800,
2,condition_1/leftstar.PNG,space,,,,,1,1,26,17,,,,,,,,,256.9449193704195,,,,,,,,,,,,,,,,,,,,,,,,,,,,,,,,,,,,,,,,,,,,,256.8454199832279,256.9449193704195,257.36028317480054,257.36030631097856,257.86052730654933,258.3702028862533,258.1449619770435,258.14500704752027,259.4629005375707,259.4629005375707,261.0946606208129,space,1,1.6197196556254312,None,260.2766218535926,,,,,,,,,,,,,,,,,,,,,,,,,,,,,,,,,,,,,,,,,,,,,,,,,,,,,,,,,,,,,,008,001,2023-11-09_18h13.39.526,untitled,2023.2.2,59.88414063626685,2023-11-09 18h13.49.326601 +0800,
1,condition_1/rightstar.PNG,space,,,,,1,2,27,4,,,,,,,,,261.1968648375466,,,,,,,,,,,,,,,,,,,,,,,,,,,,,,,,,,,,,,,,,,,,,261.0954866124159,261.1968648375466,261.6101229492558,261.61014007603694,262.110126404659,262.6189771946392,262.39408212622084,262.3941037600496,263.7148532159738,263.7148532159738,264.24549558144076,space,1,0.5272034880943011,None,,,,,,,,,,,,,,,,,,,,,,,,,,,,,,,,,,,,,,,,,,,,,,,,,,,,,,,,,,,,,,,008,001,2023-11-09_18h13.39.526,untitled,2023.2.2,59.88414063626685,2023-11-09 18h13.49.326601 +0800,
8,condition_1/rightstar.PNG,right,,,,,1,3,28,6,,,,,,,,,264.35444444477844,,,,,,,,,,,,,,,,,,,,,,,,,,,,,,,,,,,,,,,,,,,,,264.24667582699067,264.35444444477844,264.7600670167942,264.76008204028653,265.25995208707855,265.77825325461436,265.5447878848156,265.5448239411969,266.8651978098153,266.8651978098153,267.3789847184041,right,1,0.4971417806023055,None,,,,,,,,,,,,,,,,,,,,,,,,,,,,,,,,,,,,,,,,,,,,,,,,,,,,,,,,,,,,,,,008,001,2023-11-09_18h13.39.526,untitled,2023.2.2,59.88414063626685,2023-11-09 18h13.49.326601 +0800,
9,condition_1/rightstar.PNG,right,,,,,1,4,29,7,,,,,,,,,267.48919765837854,,,,,,,,,,,,,,,,,,,,,,,,,,,,,,,,,,,,,,,,,,,,,267.3803906168075,267.48919765837854,267.89352280160483,267.8935408297955,268.3934541442454,268.9012256465435,268.6774837813889,268.677522541999,269.99827139698345,269.99827139698345,270.71063882593216,right,1,0.7074739770578162,None,,,,,,,,,,,,,,,,,,,,,,,,,,,,,,,,,,,,,,,,,,,,,,,,,,,,,,,,,,,,,,,008,001,2023-11-09_18h13.39.526,untitled,2023.2.2,59.88414063626685,2023-11-09 18h13.49.326601 +0800,
1,condition_1/leftstar.PNG,space,,,,,1,5,30,22,,,,,,,,,270.80787597566314,,,,,,,,,,,,,,,,,,,,,,,,,,,,,,,,,,,,,,,,,,,,,270.7111159720455,270.80787597566314,271.22691332436534,271.22693195349575,271.71016258122836,272.2162310204467,271.9941714859526,271.9942105470325,273.32986721336147,273.32986721336147,274.16122791208613,space,1,0.8162482674158582,None,274.1432270641603,,,,,,,,,,,,,,,,,,,,,,,,,,,,,,,,,,,,,,,,,,,,,,,,,,,,,,,,,,,,,,008,001,2023-11-09_18h13.39.526,untitled,2023.2.2,59.88414063626685,2023-11-09 18h13.49.326601 +0800,
1,condition_1/blank.PNG,space,,,,,1,6,31,8,,,,,,,,,274.26255686016225,,,,,,,,,,,,,,,,,,,,,,,,,,,,,,,,,,,,,,,,,,,,,274.16199711488866,274.26255686016225,274.6768113298765,274.6768290575974,275.17687247549,275.5698732107396,275.46130023517776,275.4613302821622,276.776858774065,276.776858774065,277.72812016149646,space,1,0.9455121974231133,None,277.5768390031492,,,,,,,,,,,,,,,,,,,,,,,,,,,,,,,,,,,,,,,,,,,,,,,,,,,,,,,,,,,,,,008,001,2023-11-09_18h13.39.526,untitled,2023.2.2,59.88414063626685,2023-11-09 18h13.49.326601 +0800,
9,condition_1/rightstar.PNG,right,,,,,1,7,32,15,,,,,,,,,277.83477583897957,,,,,,,,,,,,,,,,,,,,,,,,,,,,,,,,,,,,,,,,,,,,,277.7290867729869,277.83477583897957,278.24355634906306,278.243587297457,278.7434813818368,279.25229761778496,279.027422981316,279.027444314675,280.34761867131647,280.34761867131647,281.12812965634384,right,1,0.7671193445189601,None,,,,,,,,,,,,,,,,,,,,,,,,,,,,,,,,,,,,,,,,,,,,,,,,,,,,,,,,,,,,,,,008,001,2023-11-09_18h13.39.526,untitled,2023.2.2,59.88414063626685,2023-11-09 18h13.49.326601 +0800,
2,condition_1/blank.PNG,space,,,,,1,8,33,9,,,,,,,,,281.2340401686115,,,,,,,,,,,,,,,,,,,,,,,,,,,,,,,,,,,,,,,,,,,,,281.1290998734721,281.2340401686115,281.64334559951385,281.6433846605937,282.14341906439086,282.52363030070137,282.42755837302775,282.4275794059172,283.743448330154,283.743448330154,284.5613732193033,space,1,0.8026432933179422,None,284.5433964089648,,,,,,,,,,,,,,,,,,,,,,,,,,,,,,,,,,,,,,,,,,,,,,,,,,,,,,,,,,,,,,008,001,2023-11-09_18h13.39.526,untitled,2023.2.2,59.88414063626685,2023-11-09 18h13.49.326601 +0800,
2,condition_1/rightstar.PNG,space,,,,,1,9,34,13,,,,,,,,,284.65922452939685,,,,,,,,,,,,,,,,,,,,,,,,,,,,,,,,,,,,,,,,,,,,,284.5622391733955,284.65922452939685,285.07700170757016,285.07702304092936,285.577079679495,286.1101429305004,285.86128929807546,285.86132054693917,287.17969118310293,287.17969118310293,288.06146441190094,space,1,0.8712426621509621,None,287.99342181369,,,,,,,,,,,,,,,,,,,,,,,,,,,,,,,,,,,,,,,,,,,,,,,,,,,,,,,,,,,,,,008,001,2023-11-09_18h13.39.526,untitled,2023.2.2,59.88414063626685,2023-11-09 18h13.49.326601 +0800,
1,condition_1/rightstar.PNG,space,,,,,1,10,35,12,,,,,,,,,288.16326149199494,,,,,,,,,,,,,,,,,,,,,,,,,,,,,,,,,,,,,,,,,,,,,288.06242381211496,288.16326149199494,288.5769051065149,288.5769216323565,289.0768634914416,289.5835686262608,289.3612083214525,289.36123536373816,290.6808147900874,290.6808147900874,291.2614977039598,space,1,0.5693972665058027,None,,,,,,,,,,,,,,,,,,,,,,,,,,,,,,,,,,,,,,,,,,,,,,,,,,,,,,,,,,,,,,,008,001,2023-11-09_18h13.39.526,untitled,2023.2.2,59.88414063626685,2023-11-09 18h13.49.326601 +0800,
1,condition_1/leftstar.PNG,space,,,,,1,11,36,16,,,,,,,,,291.37230136764856,,,,,,,,,,,,,,,,,,,,,,,,,,,,,,,,,,,,,,,,,,,,,291.2624646159202,291.37230136764856,291.7772544928507,291.7772812346666,292.27689738443996,292.77563646273666,292.560626551739,292.56063887100254,293.8818477453192,293.8818477453192,295.7779630007444,space,1,1.8885094622464749,None,294.693818524026,,,,,,,,,,,,,,,,,,,,,,,,,,,,,,,,,,,,,,,,,,,,,,,,,,,,,,,,,,,,,,008,001,2023-11-09_18h13.39.526,untitled,2023.2.2,59.88414063626685,2023-11-09 18h13.49.326601 +0800,
1,condition_1/leftstar.PNG,space,,,,,1,12,37,0,,,,,,,,,295.88380290259875,,,,,,,,,,,,,,,,,,,,,,,,,,,,,,,,,,,,,,,,,,,,,295.77876585616923,295.88380290259875,296.29345597711153,296.2934703996639,296.7934459113717,297.2958735574821,297.07711408329214,297.0771270034952,298.39712197963945,298.39712197963945,299.39495619299896,space,1,0.9885484932792679,None,299.2099397828383,,,,,,,,,,,,,,,,,,,,,,,,,,,,,,,,,,,,,,,,,,,,,,,,,,,,,,,,,,,,,,008,001,2023-11-09_18h13.39.526,untitled,2023.2.2,59.88414063626685,2023-11-09 18h13.49.326601 +0800,
8,condition_1/leftstar.PNG,left,,,,,1,13,38,18,,,,,,,,,299.4925421882199,,,,,,,,,,,,,,,,,,,,,,,,,,,,,,,,,,,,,,,,,,,,,299.3959333209341,299.4925421882199,299.91019286858864,299.9102090939605,300.41013112203564,300.9074742174339,300.6940066181487,300.6940189374127,302.01401691825504,302.01401691825504,302.7782466442777,left,1,0.7479304388275523,None,,,,,,,,,,,,,,,,,,,,,,,,,,,,,,,,,,,,,,,,,,,,,,,,,,,,,,,,,,,,,,,008,001,2023-11-09_18h13.39.526,untitled,2023.2.2,59.88414063626685,2023-11-09 18h13.49.326601 +0800,
9,condition_1/blank.PNG,space,,,,,1,14,39,11,,,,,,,,,302.88325995358946,,,,,,,,,,,,,,,,,,,,,,,,,,,,,,,,,,,,,,,,,,,,,302.7791735937485,302.88325995358946,303.29389586496427,303.29392260678014,303.79378033430885,304.18748416899507,304.07808880746825,304.0781221596212,305.3935250551285,305.3935250551285,307.2943886355092,space,1,1.8978008912536097,None,306.1936149557064,,,,,,,,,,,,,,,,,,,,,,,,,,,,,,,,,,,,,,,,,,,,,,,,,,,,,,,,,,,,,,008,001,2023-11-09_18h13.39.526,untitled,2023.2.2,59.88414063626685,2023-11-09 18h13.49.326601 +0800,
8,condition_1/rightstar.PNG,right,,,,,1,15,40,23,,,,,,,,,307.40086613437416,,,,,,,,,,,,,,,,,,,,,,,,,,,,,,,,,,,,,,,,,,,,,307.2950148146656,307.40086613437416,307.8101673586989,307.81018298313074,308.3103988707144,308.8268888060261,308.5947301795818,308.5947599260967,309.91836054037685,309.91836054037685,310.36140362685137,right,1,0.4366163369663809,None,,,,,,,,,,,,,,,,,,,,,,,,,,,,,,,,,,,,,,,,,,,,,,,,,,,,,,,,,,,,,,,008,001,2023-11-09_18h13.39.526,untitled,2023.2.2,59.88414063626685,2023-11-09 18h13.49.326601 +0800,
2,condition_1/leftstar.PNG,space,,,,,1,16,41,1,,,,,,,,,310.46922422592206,,,,,,,,,,,,,,,,,,,,,,,,,,,,,,,,,,,,,,,,,,,,,310.36230984390295,310.46922422592206,310.87736894181444,310.87739658504006,311.37681172048724,311.87398865606156,311.6607244748616,311.66073649365535,312.98201357462676,312.98201357462676,314.54587859035155,space,1,1.5571519184550198,None,313.7939714331301,,,,,,,,,,,,,,,,,,,,,,,,,,,,,,,,,,,,,,,,,,,,,,,,,,,,,,,,,,,,,,008,001,2023-11-09_18h13.39.526,untitled,2023.2.2,59.88414063626685,2023-11-09 18h13.49.326601 +0800,
9,condition_1/leftstar.PNG,left,,,,,1,17,42,19,,,,,,,,,314.6552159611988,,,,,,,,,,,,,,,,,,,,,,,,,,,,,,,,,,,,,,,,,,,,,314.5472935028506,314.6552159611988,315.0604479224162,315.06046745295635,315.56030384712585,316.0684551433078,315.84436202890447,315.8443854655525,317.1628185994441,317.1628185994441,318.5947584237474,left,1,1.4229052970126759,None,317.9767517467062,,,,,,,,,,,,,,,,,,,,,,,,,,,,,,,,,,,,,,,,,,,,,,,,,,,,,,,,,,,,,,008,001,2023-11-09_18h13.39.526,untitled,2023.2.2,59.88414063626685,2023-11-09 18h13.49.326601 +0800,
9,condition_1/leftstar.PNG,left,,,,,1,18,43,20,,,,,,,,,318.6995614041675,,,,,,,,,,,,,,,,,,,,,,,,,,,,,,,,,,,,,,,,,,,,,318.5955603777629,318.6995614041675,319.1102162451425,319.1102300667553,319.6102972217659,320.11345561053804,319.8944209059705,319.89445005154585,321.21583950823924,321.21583950823924,321.84434880823164,left,1,0.6190072416238763,None,,,,,,,,,,,,,,,,,,,,,,,,,,,,,,,,,,,,,,,,,,,,,,,,,,,,,,,,,,,,,,,008,001,2023-11-09_18h13.39.526,untitled,2023.2.2,59.88414063626685,2023-11-09 18h13.49.326601 +0800,
8,condition_1/leftstar.PNG,left,,,,,1,19,44,2,,,,,,,,,321.9432613778167,,,,,,,,,,,,,,,,,,,,,,,,,,,,,,,,,,,,,,,,,,,,,321.8449082830821,321.9432613778167,322.3600184608672,322.3600307801307,322.8602818226864,323.3567481470777,323.14392235138075,323.14393557205403,324.46292697891704,324.46292697891704,325.6447016199231,left,1,1.1795589763710268,None,325.27687665202075,,,,,,,,,,,,,,,,,,,,,,,,,,,,,,,,,,,,,,,,,,,,,,,,,,,,,,,,,,,,,,008,001,2023-11-09_18h13.39.526,untitled,2023.2.2,59.88414063626685,2023-11-09 18h13.49.326601 +0800,
8,condition_1/blank.PNG,space,,,,,1,20,45,24,,,,,,,,,325.7431388462137,,,,,,,,,,,,,,,,,,,,,,,,,,,,,,,,,,,,,,,,,,,,,325.64546691661735,325.7431388462137,326.1602769250276,326.16029284992965,326.66030201425974,327.0495883412891,326.94452305069444,326.9445491915708,328.2600097772888,328.2600097772888,329.24609561972056,space,1,0.9746959320286805,None,329.06058673948473,,,,,,,,,,,,,,,,,,,,,,,,,,,,,,,,,,,,,,,,,,,,,,,,,,,,,,,,,,,,,,008,001,2023-11-09_18h13.39.526,untitled,2023.2.2,59.88414063626685,2023-11-09 18h13.49.326601 +0800,
2,condition_1/rightstar.PNG,space,,,,,1,21,46,5,,,,,,,,,329.36514237312895,,,,,,,,,,,,,,,,,,,,,,,,,,,,,,,,,,,,,,,,,,,,,329.24751894537485,329.36514237312895,329.7600964628391,329.7601114863314,330.2601861530875,330.7656972207442,330.54506251425346,330.54510488050164,331.86483303942396,331.86483303942396,332.69535662916087,space,1,0.8182611149054537,None,332.6771559687886,,,,,,,,,,,,,,,,,,,,,,,,,,,,,,,,,,,,,,,,,,,,,,,,,,,,,,,,,,,,,,008,001,2023-11-09_18h13.39.526,untitled,2023.2.2,59.88414063626685,2023-11-09 18h13.49.326601 +0800,
8,condition_1/blank.PNG,space,,,,,1,22,47,10,,,,,,,,,332.8125804320216,,,,,,,,,,,,,,,,,,,,,,,,,,,,,,,,,,,,,,,,,,,,,332.69652966343483,332.8125804320216,333.210387783377,333.21040551109763,333.71027585835964,334.0718339267114,333.99401554210317,333.99404498814783,335.3108315472905,335.3108315472905,336.17811041125015,space,1,0.8589828915473845,None,336.1101095783479,,,,,,,,,,,,,,,,,,,,,,,,,,,,,,,,,,,,,,,,,,,,,,,,,,,,,,,,,,,,,,008,001,2023-11-09_18h13.39.526,untitled,2023.2.2,59.88414063626685,2023-11-09 18h13.49.326601 +0800,
8,condition_1/rightstar.PNG,right,,,,,1,23,48,14,,,,,,,,,336.28033866557143,,,,,,,,,,,,,,,,,,,,,,,,,,,,,,,,,,,,,,,,,,,,,336.1787284777206,336.28033866557143,336.69340507751986,336.6934201010122,337.19379824231146,337.70164546301066,337.4775352218262,337.477549644379,338.79835018017684,338.79835018017684,339.31092078683423,right,1,0.5079839344784887,None,,,,,,,,,,,,,,,,,,,,,,,,,,,,,,,,,,,,,,,,,,,,,,,,,,,,,,,,,,,,,,,008,001,2023-11-09_18h13.39.526,untitled,2023.2.2,59.88414063626685,2023-11-09 18h13.49.326601 +0800,
9,condition_1/leftstar.PNG,left,,,,,1,24,49,3,,,,,,,,,339.4044399227073,,,,,,,,,,,,,,,,,,,,,,,,,,,,,,,,,,,,,,,,,,,,,339.311395829659,339.4044399227073,339.82696061831894,339.8269720361732,340.3105403920108,340.82093980357104,340.59480048952537,340.59483113744955,341.9148252121845,341.9148252121845,342.99564258631244,left,1,1.0714400107444817,None,342.7268858313746,,,,,,,,,,,,,,,,,,,,,,,,,,,,,,,,,,,,,,,,,,,,,,,,,,,,,,,,,,,,,,008,001,2023-11-09_18h13.39.526,untitled,2023.2.2,59.88414063626685,2023-11-09 18h13.49.326601 +0800,
,,,,,,,,,,,,,,,,,,,,,,,,,,,,,,,,,,,,,,,,,,,,,,,,,,,,,,,,,,,,,,,,,,,,,,,,,,,,,,,,342.9964869065757,343.0102403127771,343.0102403127771,427.82840257310363,space,84.81564131832965,None,,,,,,,,,,,,,,,,,,,,,,,,,,,,,,,,,,,,,,,,,,,,,,,,,,,,,,,008,001,2023-11-09_18h13.39.526,untitled,2023.2.2,59.88414063626685,2023-11-09 18h13.49.326601 +0800,
,,,,,,,,,,,,,,,,,,,,,,,,,,,,,,,,,,,,,,,,,,,,,,,,,,,,,,,,,,,,,,,,,,,,,,,,,,,,,,,,,,,,,,,427.82845725861534,427.84428030110666,427.84428030110666,435.6786264682082,space,7.830612528810889,None,,,,,,,,,,,,,,,,,,,,,,,,,,,,,,,,,,,,,,,,,,,,,,,,008,001,2023-11-09_18h13.39.526,untitled,2023.2.2,59.88414063626685,2023-11-09 18h13.49.326601 +0800,
8,test2/rightstar.PNG,space,,,,,,,,,0,0,0,1,,,,,435.8211218882966,,,,,,,,,,,,,,,,,,,,,,,,,,,,,,,,,,,,,,,,,,,,,,,,,,,,,,,,,,,,,,,,,,,,,,,,,,,435.68932109139087,435.8211218882966,436.1940503365113,436.1940737731593,436.6947085157062,437.2051698240539,436.9783712791691,436.97840493179183,438.30900859674284,438.30900859674284,439.1104367900084,439.39446011728523,space,1.0693114823648102,None,,,,,,,,,,,,,,,,,,,,,,,,,,,,,,,,,008,001,2023-11-09_18h13.39.526,untitled,2023.2.2,59.88414063626685,2023-11-09 18h13.49.326601 +0800,
1,test2/leftstar.PNG,left,,,,,,,,,0,1,1,0,,,,,439.49236491101146,,,,,,,,,,,,,,,,,,,,,,,,,,,,,,,,,,,,,,,,,,,,,,,,,,,,,,,,,,,,,,,,,,,,,,,,,,,439.3949979583076,439.49236491101146,439.91049844642066,439.9105107656842,440.3939529241875,440.8988985075962,440.6778680823204,440.6778930213177,441.99837746283856,441.99837746283856,,442.4112581844229,left,0.39669050494239855,None,,,,,,,,,,,,,,,,,,,,,,,,,,,,,,,,,008,001,2023-11-09_18h13.39.526,untitled,2023.2.2,59.88414063626685,2023-11-09 18h13.49.326601 +0800,
9,test2/rightstar.PNG,space,,,,,,,,,0,2,2,3,,,,,442.50829762499643,,,,,,,,,,,,,,,,,,,,,,,,,,,,,,,,,,,,,,,,,,,,,,,,,,,,,,,,,,,,,,,,,,,,,,,,,,,442.4117653775211,442.50829762499643,442.9277685516845,442.9278010024277,443.41094359249564,443.91612895084063,443.6953226760688,443.6953611362087,445.0165904424748,445.0165904424748,,445.1950229573986,space,0.17758428855177044,None,,,,,,,,,,,,,,,,,,,,,,,,,,,,,,,,,008,001,2023-11-09_18h13.39.526,untitled,2023.2.2,59.88414063626685,2023-11-09 18h13.49.326601 +0800,
8,test2/rightstar.PNG,space,,,,,,,,,0,3,3,5,,,,,445.2910921808434,,,,,,,,,,,,,,,,,,,,,,,,,,,,,,,,,,,,,,,,,,,,,,,,,,,,,,,,,,,,,,,,,,,,,,,,,,,445.19550220680094,445.2910921808434,445.71039694770707,445.71041707918675,446.2108018308227,446.7169489931407,446.4949366324122,446.4949690831554,447.81427177677733,447.81427177677733,,448.2279896073492,space,0.41237022331824846,None,,,,,,,,,,,,,,,,,,,,,,,,,,,,,,,,,008,001,2023-11-09_18h13.39.526,untitled,2023.2.2,59.88414063626685,2023-11-09 18h13.49.326601 +0800,
1,test2/blank.PNG,space,,,,,,,,,0,4,4,2,,,,,448.3295273819672,,,,,,,,,,,,,,,,,,,,,,,,,,,,,,,,,,,,,,,,,,,,,,,,,,,,,,,,,,,,,,,,,,,,,,,,,,,448.22847156097987,448.3295273819672,448.74402342943677,448.744044161856,449.2273210619446,449.61579852415207,449.511344990161,449.5113717319773,450.8436366946994,450.8436366946994,451.6437960038111,452.01216301931345,space,1.1664648010091696,None,,,,,,,,,,,,,,,,,,,,,,,,,,,,,,,,,008,001,2023-11-09_18h13.39.526,untitled,2023.2.2,59.88414063626685,2023-11-09 18h13.49.326601 +0800,
2,test2/leftstar.PNG,left,,,,,,,,,0,5,5,4,,,,,452.1178043106006,,,,,,,,,,,,,,,,,,,,,,,,,,,,,,,,,,,,,,,,,,,,,,,,,,,,,,,,,,,,,,,,,,,,,,,,,,,452.01305962132983,452.1178043106006,452.52745528182413,452.5274769156531,453.0272820609589,453.53602408085544,453.3112029280187,453.3112230594984,454.63136646774547,454.63136646774547,455.443686392412,455.5782818593434,left,0.9305292686171924,None,,,,,,,,,,,,,,,,,,,,,,,,,,,,,,,,,008,001,2023-11-09_18h13.39.526,untitled,2023.2.2,59.88414063626685,2023-11-09 18h13.49.326601 +0800,
,,,,,,,,,,,,,,,,,,,,,,,,,,,,,,,,,,,,,,,,,,,,,,,,,,,,,,,,,,,,,,,,,,,,,,,,,,,,,,,,,,,,,,,,,,,,,,,,,,,,,,,,,,,,,455.57875990686625,455.5937320187577,455.5937320187577,456.59417941835636,461.3610860302256,space,5.760929665718322,None,,,,,,,,,,,,,,,,,,,,,,,,,008,001,2023-11-09_18h13.39.526,untitled,2023.2.2,59.88414063626685,2023-11-09 18h13.49.326601 +0800,
,,,,,,,,,,,,,,,,,,,,,,,,,,,,,,,,,,,,,,,,,,,,,,,,,,,,,,,,,,,,,,,,,,,,,,,,,,,,,,,,,,,,,,,,,,,,,,,,,,,,,,,,,,,,,,,,,,,,,461.3611151758005,461.3770740306618,461.3770740306618,462.3774075521892,463.9619220575214,space,2.569437228994957,None,,,,,,,,,,,,,,,,,008,001,2023-11-09_18h13.39.526,untitled,2023.2.2,59.88414063626685,2023-11-09 18h13.49.326601 +0800,
1,condition_2/leftstar.PNG,left,,,,,,,,,,,,,0,0,0,0,464.1053197885535,,,,,,,,,,,,,,,,,,,,,,,,,,,,,,,,,,,,,,,,,,,,,,,,,,,,,,,,,,,,,,,,,,,,,,,,,,,,,,,,,,,,,,,,,,,,,,,,,,,,,,,,,,463.97687193464435,464.1053197885535,464.4771944890226,464.4772122167433,464.97752094950874,465.48813429559823,465.26180568555037,465.2618414414619,466.5905951135792,466.5905951135792,467.04512966926404,left,1,0.4517419889480152,None,,008,001,2023-11-09_18h13.39.526,untitled,2023.2.2,59.88414063626685,2023-11-09 18h13.49.326601 +0800,
2,condition_2/rightstar.PNG,left,,,,,,,,,,,,,0,1,1,5,467.14362278294584,,,,,,,,,,,,,,,,,,,,,,,,,,,,,,,,,,,,,,,,,,,,,,,,,,,,,,,,,,,,,,,,,,,,,,,,,,,,,,,,,,,,,,,,,,,,,,,,,,,,,,,,,,467.04577447755037,467.14362278294584,467.56055684273497,467.560570363878,468.06082531254106,468.5727583221883,468.34505956964904,468.34509412368106,469.66530633952334,469.66530633952334,470.0612600924064,right,0,0.3851239182708923,None,,008,001,2023-11-09_18h13.39.526,untitled,2023.2.2,59.88414063626685,2023-11-09 18h13.49.326601 +0800,
9,condition_2/leftstar.PNG,space,,,,,,,,,,,,,0,2,2,19,470.1619814904566,,,,,,,,,,,,,,,,,,,,,,,,,,,,,,,,,,,,,,,,,,,,,,,,,,,,,,,,,,,,,,,,,,,,,,,,,,,,,,,,,,,,,,,,,,,,,,,,,,,,,,,,,,470.0618556236386,470.1619814904566,470.5773131445644,470.5773305718153,471.0773247126531,471.5806651861517,471.3615325284145,471.3615601716406,472.6799518406933,472.6799518406933,472.87777848221276,space,1,0.1863541019092736,None,,008,001,2023-11-09_18h13.39.526,untitled,2023.2.2,59.88414063626685,2023-11-09 18h13.49.326601 +0800,
8,condition_2/rightstar.PNG,space,,,,,,,,,,,,,0,3,3,14,472.9740835744856,,,,,,,,,,,,,,,,,,,,,,,,,,,,,,,,,,,,,,,,,,,,,,,,,,,,,,,,,,,,,,,,,,,,,,,,,,,,,,,,,,,,,,,,,,,,,,,,,,,,,,,,,,472.8782412057735,472.9740835744856,473.3945872160298,473.39462838039844,473.87782174987024,474.3873705312999,474.1623126082254,474.1623597819912,475.4821922039496,475.4821922039496,475.745715375132,space,1,0.255702842534447,None,,008,001,2023-11-09_18h13.39.526,untitled,2023.2.2,59.88414063626685,2023-11-09 18h13.49.326601 +0800,
1,condition_2/rightstar.PNG,right,,,,,,,,,,,,,0,4,4,12,475.8546984920322,,,,,,,,,,,,,,,,,,,,,,,,,,,,,,,,,,,,,,,,,,,,,,,,,,,,,,,,,,,,,,,,,,,,,,,,,,,,,,,,,,,,,,,,,,,,,,,,,,,,,,,,,,475.74689441880264,475.8546984920322,476.2605623413333,476.26058006905396,476.7606496278231,477.2746044990554,477.0448057627714,477.0448349083463,478.3634218827983,478.3634218827983,478.7112932492537,right,1,0.33551003704496907,None,,008,001,2023-11-09_18h13.39.526,untitled,2023.2.2,59.88414063626685,2023-11-09 18h13.49.326601 +0800,
2,condition_2/blank.PNG,space,,,,,,,,,,,,,0,5,5,20,478.81112405468457,,,,,,,,,,,,,,,,,,,,,,,,,,,,,,,,,,,,,,,,,,,,,,,,,,,,,,,,,,,,,,,,,,,,,,,,,,,,,,,,,,,,,,,,,,,,,,,,,,,,,,,,,,478.71187916545114,478.81112405468457,479.22729371918876,479.22731385066845,479.7272415876705,480.118171184281,480.011702999981,480.0117351502545,481.3108234346046,481.3108234346046,482.9623622458439,space,1,1.6442509151561353,None,482.1107853350286,008,001,2023-11-09_18h13.39.526,untitled,2023.2.2,59.88414063626685,2023-11-09 18h13.49.326601 +0800,
9,condition_2/leftstar.PNG,space,,,,,,,,,,,,,0,6,6,3,483.0730604446171,,,,,,,,,,,,,,,,,,,,,,,,,,,,,,,,,,,,,,,,,,,,,,,,,,,,,,,,,,,,,,,,,,,,,,,,,,,,,,,,,,,,,,,,,,,,,,,,,,,,,,,,,,482.9634535523196,483.0730604446171,483.4772149209721,483.47723745621033,483.9776134942208,484.490165772218,484.26169541311765,484.2617296666799,485.58865648214123,485.58865648214123,485.9781381145699,left,0,0.38287520195353864,None,,008,001,2023-11-09_18h13.39.526,untitled,2023.2.2,59.88414063626685,2023-11-09 18h13.49.326601 +0800,
8,condition_2/rightstar.PNG,space,,,,,,,,,,,,,0,7,7,23,486.081158106932,,,,,,,,,,,,,,,,,,,,,,,,,,,,,,,,,,,,,,,,,,,,,,,,,,,,,,,,,,,,,,,,,,,,,,,,,,,,,,,,,,,,,,,,,,,,,,,,,,,,,,,,,,485.9787129133829,486.081158106932,486.49404634026223,486.4940643684531,486.9940188472715,487.50097787910954,487.2779276955375,487.2779538364139,488.5976194976083,488.5976194976083,488.8115531256226,space,1,0.21309351432864787,None,,008,001,2023-11-09_18h13.39.526,untitled,2023.2.2,59.88414063626685,2023-11-09 18h13.49.326601 +0800,
8,condition_2/leftstar.PNG,space,,,,,,,,,,,,,0,8,8,2,488.9098866898171,,,,,,,,,,,,,,,,,,,,,,,,,,,,,,,,,,,,,,,,,,,,,,,,,,,,,,,,,,,,,,,,,,,,,,,,,,,,,,,,,,,,,,,,,,,,,,,,,,,,,,,,,,488.8120035299198,488.9098866898171,489.32715877818146,489.3271750035533,489.81089359431326,490.31746021253457,490.09571767372654,490.09576484749186,491.43066763498064,491.43066763498064,491.6466934345235,space,1,0.21209114692646835,None,,008,001,2023-11-09_18h13.39.526,untitled,2023.2.2,59.88414063626685,2023-11-09 18h13.49.326601 +0800,
1,condition_2/leftstar.PNG,left,,,,,,,,,,,,,0,9,9,16,491.77149508686716,,,,,,,,,,,,,,,,,,,,,,,,,,,,,,,,,,,,,,,,,,,,,,,,,,,,,,,,,,,,,,,,,,,,,,,,,,,,,,,,,,,,,,,,,,,,,,,,,,,,,,,,,,491.6483144693357,491.77149508686716,492.1606822588483,492.16069998656894,492.6607124560678,493.1658960115933,492.9446432386321,492.94466787715965,494.26352136836385,494.26352136836385,494.62809915865455,left,1,0.36279690552100874,None,,008,001,2023-11-09_18h13.39.526,untitled,2023.2.2,59.88414063626685,2023-11-09 18h13.49.326601 +0800,
1,condition_2/rightstar.PNG,right,,,,,,,,,,,,,0,10,10,21,494.73072313176135,,,,,,,,,,,,,,,,,,,,,,,,,,,,,,,,,,,,,,,,,,,,,,,,,,,,,,,,,,,,,,,,,,,,,,,,,,,,,,,,,,,,,,,,,,,,,,,,,,,,,,,,,,494.62855046436107,494.73072313176135,495.14407799476066,495.1440996285892,495.64404088673473,496.15399229775585,495.92853444931825,495.9285714071093,497.2323887863454,497.2323887863454,497.9457189206764,right,1,0.698492933399848,None,,008,001,2023-11-09_18h13.39.526,untitled,2023.2.2,59.88414063626685,2023-11-09 18h13.49.326601 +0800,
8,condition_2/blank.PNG,space,,,,,,,,,,,,,0,11,11,10,498.0573876370481,,,,,,,,,,,,,,,,,,,,,,,,,,,,,,,,,,,,,,,,,,,,,,,,,,,,,,,,,,,,,,,,,,,,,,,,,,,,,,,,,,,,,,,,,,,,,,,,,,,,,,,,,,497.94690006763585,498.0573876370481,498.46072513589525,498.4607440654954,498.96091878870993,499.347122295133,499.2451942101866,499.2452290646884,500.560446870772,500.560446870772,501.29481830738723,space,1,0.7314974425507899,None,,008,001,2023-11-09_18h13.39.526,untitled,2023.2.2,59.88414063626685,2023-11-09 18h13.49.326601 +0800,
1,condition_2/rightstar.PNG,right,,,,,,,,,,,,,0,12,12,4,501.390636338042,,,,,,,,,,,,,,,,,,,,,,,,,,,,,,,,,,,,,,,,,,,,,,,,,,,,,,,,,,,,,,,,,,,,,,,,,,,,,,,,,,,,,,,,,,,,,,,,,,,,,,,,,,501.2954694255409,501.390636338042,501.81140168882075,501.8114407499006,502.2944294994081,502.8006214317329,502.5789029305124,502.57894709957964,503.8987131177023,503.8987131177023,504.2280803492422,right,1,0.32715427113407713,None,,008,001,2023-11-09_18h13.39.526,untitled,2023.2.2,59.88414063626685,2023-11-09 18h13.49.326601 +0800,
1,condition_2/blank.PNG,space,,,,,,,,,,,,,0,13,13,8,504.3260242040478,,,,,,,,,,,,,,,,,,,,,,,,,,,,,,,,,,,,,,,,,,,,,,,,,,,,,,,,,,,,,,,,,,,,,,,,,,,,,,,,,,,,,,,,,,,,,,,,,,,,,,,,,,504.2286299085881,504.3260242040478,504.74397024627433,504.7439885749345,505.2440533261861,505.58988570427573,505.5277629629454,505.5277767845582,506.84378692962173,506.84378692962173,508.2959688064225,space,1,1.4391003211721909,None,507.64399040780063,008,001,2023-11-09_18h13.39.526,untitled,2023.2.2,59.88414063626685,2023-11-09 18h13.49.326601 +0800,
9,condition_2/leftstar.PNG,space,,,,,,,,,,,,,0,14,14,24,508.40675354051154,,,,,,,,,,,,,,,,,,,,,,,,,,,,,,,,,,,,,,,,,,,,,,,,,,,,,,,,,,,,,,,,,,,,,,,,,,,,,,,,,,,,,,,,,,,,,,,,,,,,,,,,,,508.29727134319955,508.40675354051154,508.81074696502947,508.8107661950994,509.3106365423614,509.8154436091718,509.594886123431,509.59491436759663,510.9151455130386,510.9151455130386,511.81157205522277,space,1,0.894981883170658,None,511.72738250802786,008,001,2023-11-09_18h13.39.526,untitled,2023.2.2,59.88414063626685,2023-11-09 18h13.49.326601 +0800,
8,condition_2/rightstar.PNG,space,,,,,,,,,,,,,0,15,15,6,511.91032507532054,,,,,,,,,,,,,,,,,,,,,,,,,,,,,,,,,,,,,,,,,,,,,,,,,,,,,,,,,,,,,,,,,,,,,,,,,,,,,,,,,,,,,,,,,,,,,,,,,,,,,,,,,,511.8120197552912,511.91032507532054,512.3273934451304,512.3274141775496,512.8109251436472,513.3130153621219,513.0950431189253,513.0950749687286,514.431235823457,514.431235823457,514.9788394111874,space,1,0.5310894645958797,None,,008,001,2023-11-09_18h13.39.526,untitled,2023.2.2,59.88414063626685,2023-11-09 18h13.49.326601 +0800,
9,condition_2/rightstar.PNG,space,,,,,,,,,,,,,0,16,16,15,515.0836051333472,,,,,,,,,,,,,,,,,,,,,,,,,,,,,,,,,,,,,,,,,,,,,,,,,,,,,,,,,,,,,,,,,,,,,,,,,,,,,,,,,,,,,,,,,,,,,,,,,,,,,,,,,,514.9798276565066,515.0836051333472,515.4940304153606,515.4940487440213,515.9940552041226,516.4999932394285,516.2785517714051,516.2785860249674,517.5967295059286,517.5967295059286,517.7446646320855,space,1,0.1337610621726526,None,,008,001,2023-11-09_18h13.39.526,untitled,2023.2.2,59.88414063626685,2023-11-09 18h13.49.326601 +0800,
2,condition_2/rightstar.PNG,right,,,,,,,,,,,,,0,17,17,13,517.8430949475696,,,,,,,,,,,,,,,,,,,,,,,,,,,,,,,,,,,,,,,,,,,,,,,,,,,,,,,,,,,,,,,,,,,,,,,,,,,,,,,,,,,,,,,,,,,,,,,,,,,,,,,,,,517.7451339659829,517.8430949475696,518.2605665479109,518.260591787378,518.7607505856909,519.2671098797191,519.0452059886043,519.0452402421665,520.3491546731625,520.3491546731625,521.013055715222,right,1,0.6620928145339349,None,,008,001,2023-11-09_18h13.39.526,untitled,2023.2.2,59.88414063626685,2023-11-09 18h13.49.326601 +0800,
9,condition_2/blank.PNG,space,,,,,,,,,,,,,0,18,18,11,521.1265086215317,,,,,,,,,,,,,,,,,,,,,,,,,,,,,,,,,,,,,,,,,,,,,,,,,,,,,,,,,,,,,,,,,,,,,,,,,,,,,,,,,,,,,,,,,,,,,,,,,,,,,,,,,,521.0144865526222,521.1265086215317,521.527370248858,521.5273876761094,522.0274073568839,522.3929682845064,522.3118170883813,522.3118504405338,523.6271737115326,523.6271737115326,527.4790985664285,space,1,3.8393111308150765,None,524.4277659976906,008,001,2023-11-09_18h13.39.526,untitled,2023.2.2,59.88414063626685,2023-11-09 18h13.49.326601 +0800,
2,condition_2/leftstar.PNG,left,,,,,,,,,,,,,0,19,19,1,527.5889208956046,,,,,,,,,,,,,,,,,,,,,,,,,,,,,,,,,,,,,,,,,,,,,,,,,,,,,,,,,,,,,,,,,,,,,,,,,,,,,,,,,,,,,,,,,,,,,,,,,,,,,,,,,,527.4802782110387,527.5889208956046,527.9940699271451,527.9940903590946,528.4940685750307,529.0140821202112,528.7784903253219,528.7785242784144,530.0995585797514,530.0995585797514,530.6613278183095,left,1,0.5506542580633322,None,,008,001,2023-11-09_18h13.39.526,untitled,2023.2.2,59.88414063626685,2023-11-09 18h13.49.326601 +0800,
2,condition_2/leftstar.PNG,left,,,,,,,,,,,,,0,20,20,22,530.7587930246527,,,,,,,,,,,,,,,,,,,,,,,,,,,,,,,,,,,,,,,,,,,,,,,,,,,,,,,,,,,,,,,,,,,,,,,,,,,,,,,,,,,,,,,,,,,,,,,,,,,,,,,,,,530.6618064667723,530.7587930246527,531.177290729514,531.1773291896538,531.6608524750154,532.16547655569,531.9449349948513,531.9449641404262,533.2657884133419,533.2657884133419,533.7295969707834,left,1,0.4481808203486253,None,,008,001,2023-11-09_18h13.39.526,untitled,2023.2.2,59.88414063626685,2023-11-09 18h13.49.326601 +0800,
9,condition_2/rightstar.PNG,space,,,,,,,,,,,,,0,21,21,7,533.8452375980319,,,,,,,,,,,,,,,,,,,,,,,,,,,,,,,,,,,,,,,,,,,,,,,,,,,,,,,,,,,,,,,,,,,,,,,,,,,,,,,,,,,,,,,,,,,,,,,,,,,,,,,,,,533.7310389255681,533.8452375980319,534.2440118613476,534.2440301900083,534.7441526314697,535.2565297355477,535.0282510762081,535.0282790199035,536.3468149144819,536.3468149144819,537.2119300950899,space,1,0.8638483997428921,None,537.1607156110008,008,001,2023-11-09_18h13.39.526,untitled,2023.2.2,59.88414063626685,2023-11-09 18h13.49.326601 +0800,
2,condition_2/blank.PNG,space,,,,,,,,,,,,,0,22,22,9,537.3116929943353,,,,,,,,,,,,,,,,,,,,,,,,,,,,,,,,,,,,,,,,,,,,,,,,,,,,,,,,,,,,,,,,,,,,,,,,,,,,,,,,,,,,,,,,,,,,,,,,,,,,,,,,,,537.2123705838821,537.3116929943353,537.7273713906434,537.7273870150757,538.2276407618592,538.6018200660374,538.5120396764419,538.5120772351725,539.8275537457926,539.8275537457926,541.2617864554804,space,1,1.423819927219938,None,540.6272978055786,008,001,2023-11-09_18h13.39.526,untitled,2023.2.2,59.88414063626685,2023-11-09 18h13.49.326601 +0800,
8,condition_2/leftstar.PNG,space,,,,,,,,,,,,,0,23,23,18,541.3606296165312,,,,,,,,,,,,,,,,,,,,,,,,,,,,,,,,,,,,,,,,,,,,,,,,,,,,,,,,,,,,,,,,,,,,,,,,,,,,,,,,,,,,,,,,,,,,,,,,,,,,,,,,,,541.262578493991,541.3606296165312,541.7772872440637,541.7773019670858,542.2774670752656,542.7883292103861,542.5614961114698,542.5615252570447,543.882169548523,543.882169548523,544.8951504467536,space,1,1.0099581715926433,None,544.693973566466,008,001,2023-11-09_18h13.39.526,untitled,2023.2.2,59.88414063626685,2023-11-09 18h13.49.326601 +0800,
2,condition_2/leftstar.PNG,left,,,,,,,,,,,,,0,24,24,17,544.9943382467163,,,,,,,,,,,,,,,,,,,,,,,,,,,,,,,,,,,,,,,,,,,,,,,,,,,,,,,,,,,,,,,,,,,,,,,,,,,,,,,,,,,,,,,,,,,,,,,,,,,,,,,,,,544.8959629172136,544.9943382467163,545.4108327191229,545.4108504468436,545.9107592542459,546.4155245557477,546.1948784314031,546.1949036708702,547.5139061951172,547.5139061951172,547.8282589485179,left,1,0.31283808491343734,None,,008,001,2023-11-09_18h13.39.526,untitled,2023.2.2,59.88414063626685,2023-11-09 18h13.49.326601 +0800,
2,condition_2/leftstar.PNG,left,,,,,,,,,,,,,1,0,25,1,547.9271141283625,,,,,,,,,,,,,,,,,,,,,,,,,,,,,,,,,,,,,,,,,,,,,,,,,,,,,,,,,,,,,,,,,,,,,,,,,,,,,,,,,,,,,,,,,,,,,,,,,,,,,,,,,,547.828778761349,547.9271141283625,548.3440902539301,548.3441097844702,548.8441354746419,549.3448570529736,549.1281083229846,549.1281329615122,550.4321083878863,550.4321083878863,550.8302564720452,left,1,0.3940568867537877,None,,008,001,2023-11-09_18h13.39.526,untitled,2023.2.2,59.88414063626685,2023-11-09 18h13.49.326601 +0800,
9,condition_2/leftstar.PNG,space,,,,,,,,,,,,,1,1,26,3,550.9367787409174,,,,,,,,,,,,,,,,,,,,,,,,,,,,,,,,,,,,,,,,,,,,,,,,,,,,,,,,,,,,,,,,,,,,,,,,,,,,,,,,,,,,,,,,,,,,,,,,,,,,,,,,,,550.8318955350483,550.9367787409174,551.3443757002824,551.344392226124,551.8443992871653,552.3521819068478,552.1287002485788,552.1287342016713,553.4473668475393,553.4473668475393,553.961599653378,space,1,0.5076732486586479,None,,008,001,2023-11-09_18h13.39.526,untitled,2023.2.2,59.88414063626685,2023-11-09 18h13.49.326601 +0800,
1,condition_2/rightstar.PNG,right,,,,,,,,,,,,,1,2,27,4,554.0607357725276,,,,,,,,,,,,,,,,,,,,,,,,,,,,,,,,,,,,,,,,,,,,,,,,,,,,,,,,,,,,,,,,,,,,,,,,,,,,,,,,,,,,,,,,,,,,,,,,,,,,,,,,,,553.962139297219,554.0607357725276,554.4772494750041,554.477268705074,554.9608629013187,555.4712196461605,555.2451100786302,555.2451395246749,556.5814419007002,556.5814419007002,557.1788784121732,right,1,0.5886279375058621,None,,008,001,2023-11-09_18h13.39.526,untitled,2023.2.2,59.88414063626685,2023-11-09 18h13.49.326601 +0800,
2,condition_2/leftstar.PNG,left,,,,,,,,,,,,,1,3,28,17,557.2814056339898,,,,,,,,,,,,,,,,,,,,,,,,,,,,,,,,,,,,,,,,,,,,,,,,,,,,,,,,,,,,,,,,,,,,,,,,,,,,,,,,,,,,,,,,,,,,,,,,,,,,,,,,,,557.1798837842734,557.2814056339898,557.6940826370196,557.6940985619212,558.1943901679056,558.6890563774573,558.477853419392,558.4778681424145,559.7980028370362,559.7980028370362,560.4115237997657,left,1,0.604513177255285,None,,008,001,2023-11-09_18h13.39.526,untitled,2023.2.2,59.88414063626685,2023-11-09 18h13.49.326601 +0800,
1,condition_2/rightstar.PNG,right,,,,,,,,,,,,,1,4,29,21,560.5066693789076,,,,,,,,,,,,,,,,,,,,,,,,,,,,,,,,,,,,,,,,,,,,,,,,,,,,,,,,,,,,,,,,,,,,,,,,,,,,,,,,,,,,,,,,,,,,,,,,,,,,,,,,,,560.4120958943499,560.5066693789076,560.9276255280383,560.9276453590478,561.4274429926077,561.93075672429,561.7115288176124,561.7115645735234,563.030943586486,563.030943586486,563.4952698534698,right,1,0.4514544393068718,None,,008,001,2023-11-09_18h13.39.526,untitled,2023.2.2,59.88414063626685,2023-11-09 18h13.49.326601 +0800,
2,condition_2/blank.PNG,space,,,,,,,,,,,,,1,5,30,20,563.5970774500088,,,,,,,,,,,,,,,,,,,,,,,,,,,,,,,,,,,,,,,,,,,,,,,,,,,,,,,,,,,,,,,,,,,,,,,,,,,,,,,,,,,,,,,,,,,,,,,,,,,,,,,,,,563.4960880328572,563.5970774500088,564.0107793556786,564.0107928768216,564.5108368956539,564.9070211089079,564.7954100827465,564.7954470405375,566.110904020617,566.110904020617,567.0120876013825,space,1,0.8926436268393445,None,566.910888756749,008,001,2023-11-09_18h13.39.526,untitled,2023.2.2,59.88414063626685,2023-11-09 18h13.49.326601 +0800,
9,condition_2/rightstar.PNG,space,,,,,,,,,,,,,1,6,31,7,567.1127504078127,,,,,,,,,,,,,,,,,,,,,,,,,,,,,,,,,,,,,,,,,,,,,,,,,,,,,,,,,,,,,,,,,,,,,,,,,,,,,,,,,,,,,,,,,,,,,,,,,,,,,,,,,,567.0129926165546,567.1127504078127,567.5275787749306,567.527597404061,568.0275296481109,568.5413757492593,568.3115187218255,568.311556280556,569.6299368322248,569.6299368322248,570.1947681589704,space,1,0.5563310348393316,None,,008,001,2023-11-09_18h13.39.526,untitled,2023.2.2,59.88414063626685,2023-11-09 18h13.49.326601 +0800,
9,condition_2/blank.PNG,space,,,,,,,,,,,,,1,7,32,11,570.2934779114103,,,,,,,,,,,,,,,,,,,,,,,,,,,,,,,,,,,,,,,,,,,,,,,,,,,,,,,,,,,,,,,,,,,,,,,,,,,,,,,,,,,,,,,,,,,,,,,,,,,,,,,,,,570.1952477088425,570.2934779114103,570.7107593143401,570.7107740373622,571.1944890224845,571.5760529740355,571.4787211763032,571.4787578336245,572.7943401096295,572.7943401096295,573.278243789814,space,1,0.4808638267659262,None,,008,001,2023-11-09_18h13.39.526,untitled,2023.2.2,59.88414063626685,2023-11-09 18h13.49.326601 +0800,
9,condition_2/rightstar.PNG,space,,,,,,,,,,,,,1,8,33,15,573.3789279296034,,,,,,,,,,,,,,,,,,,,,,,,,,,,,,,,,,,,,,,,,,,,,,,,,,,,,,,,,,,,,,,,,,,,,,,,,,,,,,,,,,,,,,,,,,,,,,,,,,,,,,,,,,573.278714325591,573.3789279296034,573.794758664123,573.7947926172155,574.2777861742406,574.791607636862,574.5620333515517,574.562067605114,575.882200496917,575.882200496917,577.745092501144,space,1,1.8477723616420008,None,576.694041472651,008,001,2023-11-09_18h13.39.526,untitled,2023.2.2,59.88414063626685,2023-11-09 18h13.49.326601 +0800,
2,condition_2/leftstar.PNG,left,,,,,,,,,,,,,1,9,34,22,577.8464611112395,,,,,,,,,,,,,,,,,,,,,,,,,,,,,,,,,,,,,,,,,,,,,,,,,,,,,,,,,,,,,,,,,,,,,,,,,,,,,,,,,,,,,,,,,,,,,,,,,,,,,,,,,,577.7459031687849,577.8464611112395,578.2608162383522,578.2608339660728,578.7608521444986,579.257455483139,579.0451615190673,579.0451900637026,580.3654293218306,580.3654293218306,581.1948679149586,left,1,0.8138285837562762,None,581.1775674622409,008,001,2023-11-09_18h13.39.526,untitled,2023.2.2,59.88414063626685,2023-11-09 18h13.49.326601 +0800,
1,condition_2/leftstar.PNG,left,,,,,,,,,,,,,1,10,35,0,581.289670357538,,,,,,,,,,,,,,,,,,,,,,,,,,,,,,,,,,,,,,,,,,,,,,,,,,,,,,,,,,,,,,,,,,,,,,,,,,,,,,,,,,,,,,,,,,,,,,,,,,,,,,,,,,581.1954757654544,581.289670357538,581.7114927612306,581.7115312213709,582.1945283840341,582.7011031149409,582.4783549035628,582.4783819458489,583.7984400206606,583.7984400206606,584.2616758825775,left,1,0.46039672235474427,None,,008,001,2023-11-09_18h13.39.526,untitled,2023.2.2,59.88414063626685,2023-11-09 18h13.49.326601 +0800,
1,condition_2/rightstar.PNG,right,,,,,,,,,,,,,1,11,36,12,584.3608558703245,,,,,,,,,,,,,,,,,,,,,,,,,,,,,,,,,,,,,,,,,,,,,,,,,,,,,,,,,,,,,,,,,,,,,,,,,,,,,,,,,,,,,,,,,,,,,,,,,,,,,,,,,,584.2622488785714,584.3608558703245,584.7774705306688,584.7774906621485,585.2775818547461,585.7825331470822,585.5618386470924,585.5618683936073,586.8657774161456,586.8657774161456,587.411614241189,right,1,0.5366881192117035,None,,008,001,2023-11-09_18h13.39.526,untitled,2023.2.2,59.88414063626685,2023-11-09 18h13.49.326601 +0800,
8,condition_2/leftstar.PNG,space,,,,,,,,,,,,,1,12,37,2,587.5108068486693,,,,,,,,,,,,,,,,,,,,,,,,,,,,,,,,,,,,,,,,,,,,,,,,,,,,,,,,,,,,,,,,,,,,,,,,,,,,,,,,,,,,,,,,,,,,,,,,,,,,,,,,,,587.4121878381225,587.5108068486693,587.927386354042,587.9274019784739,588.4275376406085,588.9418416578005,588.7116586205852,588.711684160522,590.0312831174106,590.0312831174106,590.8284275121009,space,1,0.7953992658317475,None,590.928051293808,008,001,2023-11-09_18h13.39.526,untitled,2023.2.2,59.88414063626685,2023-11-09 18h13.49.326601 +0800,
1,condition_2/blank.PNG,space,,,,,,,,,,,,,1,13,38,8,590.928051293808,,,,,,,,,,,,,,,,,,,,,,,,,,,,,,,,,,,,,,,,,,,,,,,,,,,,,,,,,,,,,,,,,,,,,,,,,,,,,,,,,,,,,,,,,,,,,,,,,,,,,,,,,,590.8290272499107,590.928051293808,591.3443591744413,591.3443802073302,591.8440522444948,592.1970349034787,592.1283291683208,592.1283429899336,593.4444474825286,593.4444474825286,594.6453413202225,space,1,1.1906946892854648,None,594.2440395045733,008,001,2023-11-09_18h13.39.526,untitled,2023.2.2,59.88414063626685,2023-11-09 18h13.49.326601 +0800,
2,condition_2/rightstar.PNG,left,,,,,,,,,,,,,1,14,39,5,594.7438344339043,,,,,,,,,,,,,,,,,,,,,,,,,,,,,,,,,,,,,,,,,,,,,,,,,,,,,,,,,,,,,,,,,,,,,,,,,,,,,,,,,,,,,,,,,,,,,,,,,,,,,,,,,,594.6461691146446,594.7438344339043,595.160746859865,595.1607630852363,595.6611421279454,596.1684953762197,595.9453995212316,595.9454337747939,597.263969368902,597.263969368902,597.8781216187754,right,0,0.6022263012673648,None,,008,001,2023-11-09_18h13.39.526,untitled,2023.2.2,59.88414063626685,2023-11-09 18h13.49.326601 +0800,
8,condition_2/rightstar.PNG,space,,,,,,,,,,,,,1,15,40,6,597.9760729853274,,,,,,,,,,,,,,,,,,,,,,,,,,,,,,,,,,,,,,,,,,,,,,,,,,,,,,,,,,,,,,,,,,,,,,,,,,,,,,,,,,,,,,,,,,,,,,,,,,,,,,,,,,597.8785804362283,597.9760729853274,598.394191797714,598.3942098259049,598.8776114209791,599.382299201261,599.162077340337,599.1621112934295,600.4812862873678,600.4812862873678,601.0454992471728,space,1,0.5533524772686178,None,,008,001,2023-11-09_18h13.39.526,untitled,2023.2.2,59.88414063626685,2023-11-09 18h13.49.326601 +0800,
8,condition_2/rightstar.PNG,space,,,,,,,,,,,,,1,16,41,14,601.145736588303,,,,,,,,,,,,,,,,,,,,,,,,,,,,,,,,,,,,,,,,,,,,,,,,,,,,,,,,,,,,,,,,,,,,,,,,,,,,,,,,,,,,,,,,,,,,,,,,,,,,,,,,,,601.0463615956273,601.145736588303,601.5610324864992,601.5610523175087,602.0610530686836,602.5689288340177,602.3451728467808,602.3452016918854,603.6656245370887,603.6656245370887,604.2461791503374,space,1,0.5770850879521277,None,,008,001,2023-11-09_18h13.39.526,untitled,2023.2.2,59.88414063626685,2023-11-09 18h13.49.326601 +0800,
8,condition_2/blank.PNG,space,,,,,,,,,,,,,1,17,42,10,604.3466307264671,,,,,,,,,,,,,,,,,,,,,,,,,,,,,,,,,,,,,,,,,,,,,,,,,,,,,,,,,,,,,,,,,,,,,,,,,,,,,,,,,,,,,,,,,,,,,,,,,,,,,,,,,,604.2473819311258,604.3466307264671,604.7610913184949,604.7611156565522,605.2610034310651,605.6182647806377,605.5446583823123,605.544678513792,606.8611982557127,606.8611982557127,607.8792159299496,space,1,1.0144243553645538,None,607.6611111795514,008,001,2023-11-09_18h13.39.526,untitled,2023.2.2,59.88414063626685,2023-11-09 18h13.49.326601 +0800,
8,condition_2/leftstar.PNG,space,,,,,,,,,,,,,1,18,43,18,607.975999971155,,,,,,,,,,,,,,,,,,,,,,,,,,,,,,,,,,,,,,,,,,,,,,,,,,,,,,,,,,,,,,,,,,,,,,,,,,,,,,,,,,,,,,,,,,,,,,,,,,,,,,,,,,607.8797357427811,607.975999971155,608.394283140547,608.3942972626296,608.8946748029894,609.3976784497918,609.1786275198529,609.1786560644882,610.4981588710266,610.4981588710266,611.1450506156475,space,1,0.63300583121827,None,,008,001,2023-11-09_18h13.39.526,untitled,2023.2.2,59.88414063626685,2023-11-09 18h13.49.326601 +0800,
2,condition_2/rightstar.PNG,right,,,,,,,,,,,,,1,19,44,13,611.2441452699586,,,,,,,,,,,,,,,,,,,,,,,,,,,,,,,,,,,,,,,,,,,,,,,,,,,,,,,,,,,,,,,,,,,,,,,,,,,,,,,,,,,,,,,,,,,,,,,,,,,,,,,,,,611.1456350294957,611.2441452699586,611.6608939398538,611.6609140713335,612.1609199304953,612.669003620962,612.4451367603524,612.445164403578,613.7638382138148,613.7638382138148,614.6953130610336,right,1,0.9182109063945063,None,614.5775574265481,008,001,2023-11-09_18h13.39.526,untitled,2023.2.2,59.88414063626685,2023-11-09 18h13.49.326601 +0800,
8,condition_2/rightstar.PNG,space,,,,,,,,,,,,,1,20,45,23,614.7954094818069,,,,,,,,,,,,,,,,,,,,,,,,,,,,,,,,,,,,,,,,,,,,,,,,,,,,,,,,,,,,,,,,,,,,,,,,,,,,,,,,,,,,,,,,,,,,,,,,,,,,,,,,,,614.6961471653226,614.7954094818069,615.2110274836764,615.2110491175049,615.7111643476906,616.2150399579823,615.9955178913269,615.995553647238,617.3150904068693,617.3150904068693,618.7950314907421,space,1,1.4711947071637042,None,618.127562068807,008,001,2023-11-09_18h13.39.526,untitled,2023.2.2,59.88414063626685,2023-11-09 18h13.49.326601 +0800,
2,condition_2/blank.PNG,space,,,,,,,,,,,,,1,21,46,9,618.891138873857,,,,,,,,,,,,,,,,,,,,,,,,,,,,,,,,,,,,,,,,,,,,,,,,,,,,,,,,,,,,,,,,,,,,,,,,,,,,,,,,,,,,,,,,,,,,,,,,,,,,,,,,,,618.7954824959788,618.891138873857,619.3108366552779,619.3108724111894,619.8110233972866,620.1710475670807,620.095217090965,620.0952459360701,621.3945995352933,621.3945995352933,623.3968707868494,space,1,2.0001078686741494,None,622.1945226751072,008,001,2023-11-09_18h13.39.526,untitled,2023.2.2,59.88414063626685,2023-11-09 18h13.49.326601 +0800,
9,condition_2/leftstar.PNG,space,,,,,,,,,,,,,1,22,47,24,623.5034795910365,,,,,,,,,,,,,,,,,,,,,,,,,,,,,,,,,,,,,,,,,,,,,,,,,,,,,,,,,,,,,,,,,,,,,,,,,,,,,,,,,,,,,,,,,,,,,,,,,,,,,,,,,,623.3983818496986,623.5034795910365,623.9111576772598,623.9111814143776,624.4109009257777,624.916629233132,624.6947788256498,624.6947926472626,626.0210064477824,626.0210064477824,626.0616564121315,space,1,0.037987501055340545,None,,008,001,2023-11-09_18h13.39.526,untitled,2023.2.2,59.88414063626685,2023-11-09 18h13.49.326601 +0800,
9,condition_2/leftstar.PNG,space,,,,,,,,,,,,,1,23,48,19,626.1621386361853,,,,,,,,,,,,,,,,,,,,,,,,,,,,,,,,,,,,,,,,,,,,,,,,,,,,,,,,,,,,,,,,,,,,,,,,,,,,,,,,,,,,,,,,,,,,,,,,,,,,,,,,,,626.0622453330275,626.1621386361853,626.57768903234,626.5777163750959,627.0776858774066,627.584909322708,627.3617840216748,627.3618113644307,628.681461701663,628.681461701663,629.7121543958287,left,0,1.025751768039754,None,629.4943368946019,008,001,2023-11-09_18h13.39.526,untitled,2023.2.2,59.88414063626685,2023-11-09 18h13.49.326601 +0800,
1,condition_2/leftstar.PNG,left,,,,,,,,,,,,,1,24,49,16,629.8080183983698,,,,,,,,,,,,,,,,,,,,,,,,,,,,,,,,,,,,,,,,,,,,,,,,,,,,,,,,,,,,,,,,,,,,,,,,,,,,,,,,,,,,,,,,,,,,,,,,,,,,,,,,,,629.7129713733366,629.8080183983698,630.2273910714184,630.227405794441,630.7279425838183,631.2343093895925,631.0117579859625,631.0117733099246,632.3327099585622,632.3327099585622,632.8617327915663,left,1,0.5185478532780508,None,,008,001,2023-11-09_18h13.39.526,untitled,2023.2.2,59.88414063626685,2023-11-09 18h13.49.326601 +0800,
