stimuli,star,CorrectAns,trials_3.thisRepN,trials_3.thisTrialN,trials_3.thisN,trials_3.thisIndex,trials.thisRepN,trials.thisTrialN,trials.thisN,trials.thisIndex,trials_4.thisRepN,trials_4.thisTrialN,trials_4.thisN,trials_4.thisIndex,trials_2.thisRepN,trials_2.thisTrialN,trials_2.thisN,trials_2.thisIndex,thisRow.t,notes,routine_21.started,text_9.started,key_resp_8.started,routine_21.stopped,key_resp_8.keys,key_resp_8.rt,key_resp_8.duration,introduction.started,text_6.started,key_resp_5.started,introduction.stopped,key_resp_5.keys,key_resp_5.rt,key_resp_5.duration,routine_14.started,image_6.started,routine_14.stopped,routine_16.started,text_4.started,text_4.stopped,routine_16.stopped,routine_17.started,image_7.started,key_resp_3.started,image_7.stopped,routine_17.stopped,key_resp_3.keys,key_resp_3.rt,key_resp_3.duration,routine_20.started,text_8.started,key_resp_7.started,routine_20.stopped,key_resp_7.keys,key_resp_7.rt,key_resp_7.duration,routine_18.started,text_5.started,key_resp_4.started,routine_18.stopped,key_resp_4.keys,key_resp_4.rt,key_resp_4.duration,trial.started,image_3.started,trial.stopped,routine.started,text_3.started,text_3.stopped,routine.stopped,routine_1.started,image_2.started,key_resp.started,routine_1.stopped,key_resp.keys,key_resp.corr,key_resp.rt,key_resp.duration,image_2.stopped,routine_22.started,text_10.started,key_resp_9.started,routine_22.stopped,key_resp_9.keys,key_resp_9.rt,key_resp_9.duration,routine_19.started,text_7.started,key_resp_6.started,routine_19.stopped,key_resp_6.keys,key_resp_6.rt,key_resp_6.duration,routine_23.started,image_8.started,routine_23.stopped,routine_24.started,text_11.started,text_11.stopped,routine_24.stopped,routine_25.started,image_9.started,key_resp_10.started,routine_25.stopped,key_resp_10.keys,key_resp_10.rt,key_resp_10.duration,routine_26.started,text_12.started,key_resp_11.started,text_12.stopped,routine_26.stopped,key_resp_11.keys,key_resp_11.rt,key_resp_11.duration,routine_27.started,text_13.started,key_resp_12.started,text_13.stopped,routine_27.stopped,key_resp_12.keys,key_resp_12.rt,key_resp_12.duration,routine_10.started,image_4.started,routine_10.stopped,routine_11.started,text.started,text.stopped,routine_11.stopped,routine_12.started,image_5.started,key_resp_2.started,image_5.stopped,routine_12.stopped,key_resp_2.keys,key_resp_2.corr,key_resp_2.rt,key_resp_2.duration,participant,session,date,expName,psychopyVersion,frameRate,expStart,
,,,,,,,,,,,,,,,,,,,,,0.019204099997295998,0.05256989999907091,0.05256989999907091,5.869818200008012,space,5.808688000004622,0.0077314000081969425,,,,,,,,,,,,,,,,,,,,,,,,,,,,,,,,,,,,,,,,,,,,,,,,,,,,,,,,,,,,,,,,,,,,,,,,,,,,,,,,,,,,,,,,,,,,,,,,,,,,,,,,,,,,,,,,,008,001,2023-11-12_14h25.07.176,untitled,2023.2.3,59.80786126573501,2023-11-12 14h25.16.772704 +0800,
,,,,,,,,,,,,,,,,,,,,,,,,,,,,5.869843000007677,5.885659400009899,5.885659400009899,54.35387420000916,space,48.46466959999816,None,,,,,,,,,,,,,,,,,,,,,,,,,,,,,,,,,,,,,,,,,,,,,,,,,,,,,,,,,,,,,,,,,,,,,,,,,,,,,,,,,,,,,,,,,,,,,,,,,,,,,,,,,,008,001,2023-11-12_14h25.07.176,untitled,2023.2.3,59.80786126573501,2023-11-12 14h25.16.772704 +0800,
2,test/leftstar.PNG,space,0,0,0,4,,,,,,,,,,,,,54.48568230000092,,,,,,,,,,,,,,,,54.35957790000248,54.48568230000092,54.86949350000941,54.86950539999816,55.36937580000085,55.8692141000065,55.652711600007024,55.65272050000203,56.99282790000143,56.99282790000143,57.80206280000857,58.22025990000111,left,1.2264339000103064,None,,,,,,,,,,,,,,,,,,,,,,,,,,,,,,,,,,,,,,,,,,,,,,,,,,,,,,,,,,,,,,,,,,,,,,,,,,,,,,,,,,,,,,,,,,,008,001,2023-11-12_14h25.07.176,untitled,2023.2.3,59.80786126573501,2023-11-12 14h25.16.772704 +0800,
8,test/leftstar.PNG,left,0,1,1,5,,,,,,,,,,,,,58.29265050000686,,,,,,,,,,,,,,,,58.22070910000184,58.29265050000686,58.73600850001094,58.73601990001043,59.23566400000709,59.71952769999916,59.51946460000181,59.51947660000587,60.83486690001155,60.83486690001155,,61.31940100000065,left,0.47387019998859614,None,,,,,,,,,,,,,,,,,,,,,,,,,,,,,,,,,,,,,,,,,,,,,,,,,,,,,,,,,,,,,,,,,,,,,,,,,,,,,,,,,,,,,,,,,,,008,001,2023-11-12_14h25.07.176,untitled,2023.2.3,59.80786126573501,2023-11-12 14h25.16.772704 +0800,
9,test/rightstar.PNG,right,0,2,2,3,,,,,,,,,,,,,61.39606850000564,,,,,,,,,,,,,,,,61.319723699998576,61.39606850000564,61.83542210000451,61.83543279999867,62.318991100008134,62.786218799999915,62.603184500010684,62.60319449999952,63.918436799998744,63.918436799998744,,64.2866500000091,right,0.3671508000115864,None,,,,,,,,,,,,,,,,,,,,,,,,,,,,,,,,,,,,,,,,,,,,,,,,,,,,,,,,,,,,,,,,,,,,,,,,,,,,,,,,,,,,,,,,,,,008,001,2023-11-12_14h25.07.176,untitled,2023.2.3,59.80786126573501,2023-11-12 14h25.16.772704 +0800,
8,test/rightstar.PNG,right,0,3,3,1,,,,,,,,,,,,,64.3640360999998,,,,,,,,,,,,,,,,64.28700799999933,64.3640360999998,64.80294490000233,64.80295840000326,65.2853851000109,65.78589140000986,65.5693609000009,65.56937300000573,66.90172290000191,66.90172290000191,,67.38634130000719,right,0.4741490999876987,None,,,,,,,,,,,,,,,,,,,,,,,,,,,,,,,,,,,,,,,,,,,,,,,,,,,,,,,,,,,,,,,,,,,,,,,,,,,,,,,,,,,,,,,,,,,008,001,2023-11-12_14h25.07.176,untitled,2023.2.3,59.80786126573501,2023-11-12 14h25.16.772704 +0800,
1,test/leftstar.PNG,space,0,4,4,0,,,,,,,,,,,,,67.46864300000016,,,,,,,,,,,,,,,,67.38665630000469,67.46864300000016,67.9021136000083,67.90212240000255,68.40228210001078,68.86951360000239,68.68572990001121,68.68574670000817,69.98541660000046,69.98541660000046,,70.36922350000532,left,0.36919169999600854,None,,,,,,,,,,,,,,,,,,,,,,,,,,,,,,,,,,,,,,,,,,,,,,,,,,,,,,,,,,,,,,,,,,,,,,,,,,,,,,,,,,,,,,,,,,,008,001,2023-11-12_14h25.07.176,untitled,2023.2.3,59.80786126573501,2023-11-12 14h25.16.772704 +0800,
1,test/blank.PNG,space,0,5,5,2,,,,,,,,,,,,,70.45174480001151,,,,,,,,,,,,,,,,70.36959930000012,70.45174480001151,70.88554080000904,70.88555000000633,71.36854540000786,71.69088930000726,71.65265770000406,71.6526687000005,73.05856830000994,73.05856830000994,73.86870110000018,76.60306449999916,space,3.536347700006445,None,,,,,,,,,,,,,,,,,,,,,,,,,,,,,,,,,,,,,,,,,,,,,,,,,,,,,,,,,,,,,,,,,,,,,,,,,,,,,,,,,,,,,,,,,,,008,001,2023-11-12_14h25.07.176,untitled,2023.2.3,59.80786126573501,2023-11-12 14h25.16.772704 +0800,
,,,,,,,,,,,,,,,,,,,,,,,,,,,,,,,,,,,,,,,,,,,,,,,,,,76.60333540001011,76.61851939999906,76.61851939999906,86.83584420000261,space,10.202278299999307,0.008846099997754209,,,,,,,,,,,,,,,,,,,,,,,,,,,,,,,,,,,,,,,,,,,,,,,,,,,,,,,,,,,,,,,,,,,,,,,,,,,,,,,,,,,,008,001,2023-11-12_14h25.07.176,untitled,2023.2.3,59.80786126573501,2023-11-12 14h25.16.772704 +0800,
,,,,,,,,,,,,,,,,,,,,,,,,,,,,,,,,,,,,,,,,,,,,,,,,,,,,,,,,,86.83588140000938,86.85213569999905,86.85213569999905,93.28608930000337,space,6.430121199999121,None,,,,,,,,,,,,,,,,,,,,,,,,,,,,,,,,,,,,,,,,,,,,,,,,,,,,,,,,,,,,,,,,,,,,,,,,,,,,,008,001,2023-11-12_14h25.07.176,untitled,2023.2.3,59.80786126573501,2023-11-12 14h25.16.772704 +0800,
8,condition_1/leftstar.PNG,left,,,,,0,0,0,2,,,,,,,,,93.36855050000304,,,,,,,,,,,,,,,,,,,,,,,,,,,,,,,,,,,,,,,,,,,,,93.29142160000629,93.36855050000304,93.80234429999837,93.80235530000937,94.28589510000893,94.769464099998,94.56938749999972,94.56940560000658,95.90181470000243,95.90181470000243,96.33632129999751,left,1,0.4278251000068849,None,,,,,,,,,,,,,,,,,,,,,,,,,,,,,,,,,,,,,,,,,,,,,,,,,,,,,,,,,,,,,,008,001,2023-11-12_14h25.07.176,untitled,2023.2.3,59.80786126573501,2023-11-12 14h25.16.772704 +0800,
1,condition_1/leftstar.PNG,space,,,,,0,1,1,22,,,,,,,,,96.41287510000984,,,,,,,,,,,,,,,,,,,,,,,,,,,,,,,,,,,,,,,,,,,,,96.33683510000992,96.41287510000984,96.85255670000333,96.85256850000587,97.33612859999994,97.83583460000227,97.61932740001066,97.61933919999865,98.95166120000067,98.95166120000067,99.30327309999848,left,0,0.3397166000067955,None,,,,,,,,,,,,,,,,,,,,,,,,,,,,,,,,,,,,,,,,,,,,,,,,,,,,,,,,,,,,,,008,001,2023-11-12_14h25.07.176,untitled,2023.2.3,59.80786126573501,2023-11-12 14h25.16.772704 +0800,
8,condition_1/rightstar.PNG,right,,,,,0,2,2,6,,,,,,,,,99.40226500001154,,,,,,,,,,,,,,,,,,,,,,,,,,,,,,,,,,,,,,,,,,,,,99.30371210000885,99.40226500001154,99.81905380000535,99.81906410001102,100.30268870000145,100.78590660000918,100.5861309000029,100.58614400000079,101.91841980000027,101.91841980000027,102.26925490000576,right,1,0.3417591000034008,None,,,,,,,,,,,,,,,,,,,,,,,,,,,,,,,,,,,,,,,,,,,,,,,,,,,,,,,,,,,,,,008,001,2023-11-12_14h25.07.176,untitled,2023.2.3,59.80786126573501,2023-11-12 14h25.16.772704 +0800,
9,condition_1/leftstar.PNG,left,,,,,0,3,3,20,,,,,,,,,102.35215820001031,,,,,,,,,,,,,,,,,,,,,,,,,,,,,,,,,,,,,,,,,,,,,102.2697799000016,102.35215820001031,102.786394499999,102.78640530000848,103.26884720000089,103.73524310000357,103.55300490000809,103.55301580000378,104.86840600000869,104.86840600000869,105.16960190000827,left,1,0.2973619999975199,None,,,,,,,,,,,,,,,,,,,,,,,,,,,,,,,,,,,,,,,,,,,,,,,,,,,,,,,,,,,,,,008,001,2023-11-12_14h25.07.176,untitled,2023.2.3,59.80786126573501,2023-11-12 14h25.16.772704 +0800,
1,condition_1/blank.PNG,space,,,,,0,4,4,8,,,,,,,,,105.2519442000048,,,,,,,,,,,,,,,,,,,,,,,,,,,,,,,,,,,,,,,,,,,,,105.17001940000046,105.2519442000048,105.68558390000544,105.68559520000417,106.16892820000066,106.49136420000286,106.45295350000379,106.45296520000556,107.86835480001173,107.86835480001173,109.3041271000111,space,1,1.4324977999931434,None,108.6688933000114,,,,,,,,,,,,,,,,,,,,,,,,,,,,,,,,,,,,,,,,,,,,,,,,,,,,,,,,,,,,,008,001,2023-11-12_14h25.07.176,untitled,2023.2.3,59.80786126573501,2023-11-12 14h25.16.772704 +0800,
1,condition_1/rightstar.PNG,space,,,,,0,5,5,12,,,,,,,,,109.37512409999908,,,,,,,,,,,,,,,,,,,,,,,,,,,,,,,,,,,,,,,,,,,,,109.30463700000837,109.37512409999908,109.8200838000048,109.82010450000234,110.31865210000251,110.78580290000536,110.60267570000724,110.6026850000053,111.96874180001032,111.96874180001032,112.45425790001173,right,0,0.4757182000030298,None,,,,,,,,,,,,,,,,,,,,,,,,,,,,,,,,,,,,,,,,,,,,,,,,,,,,,,,,,,,,,,008,001,2023-11-12_14h25.07.176,untitled,2023.2.3,59.80786126573501,2023-11-12 14h25.16.772704 +0800,
8,condition_1/blank.PNG,space,,,,,0,6,6,10,,,,,,,,,112.52920150000136,,,,,,,,,,,,,,,,,,,,,,,,,,,,,,,,,,,,,,,,,,,,,112.45469569999841,112.52920150000136,112.96944529999746,112.96945920000144,113.4697113000002,113.79010220000055,113.7531156000041,113.75313150000875,115.16937280001002,115.16937280001002,117.05318040000566,space,1,1.869805100010126,None,115.96881400000711,,,,,,,,,,,,,,,,,,,,,,,,,,,,,,,,,,,,,,,,,,,,,,,,,,,,,,,,,,,,,008,001,2023-11-12_14h25.07.176,untitled,2023.2.3,59.80786126573501,2023-11-12 14h25.16.772704 +0800,
2,condition_1/leftstar.PNG,space,,,,,0,7,7,17,,,,,,,,,117.12379579999833,,,,,,,,,,,,,,,,,,,,,,,,,,,,,,,,,,,,,,,,,,,,,117.05359110000427,117.12379579999833,117.5535738000035,117.55358590000833,118.0688908000011,118.55240159999812,118.3527044000075,118.35271980000834,119.71406969999953,119.71406969999953,120.15341480000643,left,0,0.43748010000854265,None,,,,,,,,,,,,,,,,,,,,,,,,,,,,,,,,,,,,,,,,,,,,,,,,,,,,,,,,,,,,,,008,001,2023-11-12_14h25.07.176,untitled,2023.2.3,59.80786126573501,2023-11-12 14h25.16.772704 +0800,
9,condition_1/leftstar.PNG,left,,,,,0,8,8,19,,,,,,,,,120.23479660000885,,,,,,,,,,,,,,,,,,,,,,,,,,,,,,,,,,,,,,,,,,,,,120.15379470000335,120.23479660000885,120.66900390000956,120.66901379999763,121.16925839999749,121.65251220000209,121.45293590000074,121.45294850000937,122.76966970000649,122.76966970000649,123.36993630000507,left,1,0.5940732000017306,None,,,,,,,,,,,,,,,,,,,,,,,,,,,,,,,,,,,,,,,,,,,,,,,,,,,,,,,,,,,,,,008,001,2023-11-12_14h25.07.176,untitled,2023.2.3,59.80786126573501,2023-11-12 14h25.16.772704 +0800,
1,condition_1/leftstar.PNG,space,,,,,0,9,9,16,,,,,,,,,123.45193300000392,,,,,,,,,,,,,,,,,,,,,,,,,,,,,,,,,,,,,,,,,,,,,123.3703067000024,123.45193300000392,123.88592179999978,123.88593400000536,124.38562520001142,124.869133900007,124.66976960000466,124.66978180001024,125.98493770000641,125.98493770000641,126.7364011000027,left,0,0.7407810000004247,None,,,,,,,,,,,,,,,,,,,,,,,,,,,,,,,,,,,,,,,,,,,,,,,,,,,,,,,,,,,,,,008,001,2023-11-12_14h25.07.176,untitled,2023.2.3,59.80786126573501,2023-11-12 14h25.16.772704 +0800,
9,condition_1/leftstar.PNG,left,,,,,0,10,10,3,,,,,,,,,126.81921810000495,,,,,,,,,,,,,,,,,,,,,,,,,,,,,,,,,,,,,,,,,,,,,126.73676690000866,126.81921810000495,127.25238499999978,127.25239510000392,127.7523857000051,128.2356937000004,128.03612509999948,128.03613649999897,129.33517380000558,129.33517380000558,129.969820600003,left,1,0.6306851999979699,None,,,,,,,,,,,,,,,,,,,,,,,,,,,,,,,,,,,,,,,,,,,,,,,,,,,,,,,,,,,,,,008,001,2023-11-12_14h25.07.176,untitled,2023.2.3,59.80786126573501,2023-11-12 14h25.16.772704 +0800,
8,condition_1/leftstar.PNG,left,,,,,0,11,11,18,,,,,,,,,130.051864699999,,,,,,,,,,,,,,,,,,,,,,,,,,,,,,,,,,,,,,,,,,,,,129.97016599999915,130.051864699999,130.48521990000154,130.48522990000492,130.9685282999999,131.43601340000168,131.25248330000613,131.25249189999886,132.56834430000163,132.56834430000163,132.95284310000716,left,1,0.37258170000859536,None,,,,,,,,,,,,,,,,,,,,,,,,,,,,,,,,,,,,,,,,,,,,,,,,,,,,,,,,,,,,,,008,001,2023-11-12_14h25.07.176,untitled,2023.2.3,59.80786126573501,2023-11-12 14h25.16.772704 +0800,
9,condition_1/blank.PNG,space,,,,,0,12,12,11,,,,,,,,,133.0302725000074,,,,,,,,,,,,,,,,,,,,,,,,,,,,,,,,,,,,,,,,,,,,,132.9532418000017,133.0302725000074,133.46957710001152,133.46958879999875,133.95257010000932,134.27223290000984,134.2360852999991,134.23609700000088,135.63527199999953,135.63527199999953,137.4860825000069,space,1,1.8489411999908043,None,136.43556730001,,,,,,,,,,,,,,,,,,,,,,,,,,,,,,,,,,,,,,,,,,,,,,,,,,,,,,,,,,,,,008,001,2023-11-12_14h25.07.176,untitled,2023.2.3,59.80786126573501,2023-11-12 14h25.16.772704 +0800,
9,condition_1/rightstar.PNG,right,,,,,0,13,13,7,,,,,,,,,137.56975400001102,,,,,,,,,,,,,,,,,,,,,,,,,,,,,,,,,,,,,,,,,,,,,137.48645920000854,137.56975400001102,138.00262569999904,138.00264500000048,138.4855502999999,138.93476139999984,138.7695107000036,138.76952410000376,140.13483870000346,140.13483870000346,140.6860691000038,right,1,0.5368823000026168,None,,,,,,,,,,,,,,,,,,,,,,,,,,,,,,,,,,,,,,,,,,,,,,,,,,,,,,,,,,,,,,008,001,2023-11-12_14h25.07.176,untitled,2023.2.3,59.80786126573501,2023-11-12 14h25.16.772704 +0800,
2,condition_1/rightstar.PNG,space,,,,,0,14,14,13,,,,,,,,,140.75827410000784,,,,,,,,,,,,,,,,,,,,,,,,,,,,,,,,,,,,,,,,,,,,,140.68641999999818,140.75827410000784,141.2018614000117,141.2018708000105,141.68694340001093,142.1857546000101,141.9856540000037,141.98566350000328,143.28552540000237,143.28552540000237,143.86970989999827,space,1,0.5830245000106515,None,,,,,,,,,,,,,,,,,,,,,,,,,,,,,,,,,,,,,,,,,,,,,,,,,,,,,,,,,,,,,,008,001,2023-11-12_14h25.07.176,untitled,2023.2.3,59.80786126573501,2023-11-12 14h25.16.772704 +0800,
2,condition_1/rightstar.PNG,space,,,,,0,15,15,21,,,,,,,,,143.9411844999995,,,,,,,,,,,,,,,,,,,,,,,,,,,,,,,,,,,,,,,,,,,,,143.87027189999935,143.9411844999995,144.38568730000407,144.38569760000973,144.88532050000504,145.35290610000084,145.16968030000862,145.16969110000355,146.4851769000088,146.4851769000088,146.7540302999987,space,1,0.2549622999940766,None,,,,,,,,,,,,,,,,,,,,,,,,,,,,,,,,,,,,,,,,,,,,,,,,,,,,,,,,,,,,,,008,001,2023-11-12_14h25.07.176,untitled,2023.2.3,59.80786126573501,2023-11-12 14h25.16.772704 +0800,
9,condition_1/rightstar.PNG,right,,,,,0,16,16,15,,,,,,,,,146.8358964000072,,,,,,,,,,,,,,,,,,,,,,,,,,,,,,,,,,,,,,,,,,,,,146.754477399998,146.8358964000072,147.26875270000892,147.26876330000232,147.77066410001134,,148.06945370000903,148.06946510000853,149.36857859999873,149.36857859999873,149.7195572000055,right,1,0.33947649999754503,None,,,,,,,,,,,,,,,,,,,,,,,,,,,,,,,,,,,,,,,,,,,,,,,,,,,,,,,,,,,,,,008,001,2023-11-12_14h25.07.176,untitled,2023.2.3,59.80786126573501,2023-11-12 14h25.16.772704 +0800,
8,condition_1/rightstar.PNG,right,,,,,0,17,17,14,,,,,,,,,149.80251140000473,,,,,,,,,,,,,,,,,,,,,,,,,,,,,,,,,,,,,,,,,,,,,149.7199057000107,149.80251140000473,150.23525650000374,150.23526739999943,150.73526980000315,151.2194376000116,151.01902710000286,151.01903870000388,152.31839359999867,152.31839359999867,152.71908590001112,right,1,0.3905611999944085,None,,,,,,,,,,,,,,,,,,,,,,,,,,,,,,,,,,,,,,,,,,,,,,,,,,,,,,,,,,,,,,008,001,2023-11-12_14h25.07.176,untitled,2023.2.3,59.80786126573501,2023-11-12 14h25.16.772704 +0800,
1,condition_1/leftstar.PNG,space,,,,,0,18,18,0,,,,,,,,,152.78710270000738,,,,,,,,,,,,,,,,,,,,,,,,,,,,,,,,,,,,,,,,,,,,,152.71944780000194,152.78710270000738,153.23658150000847,153.23659290000796,153.7187227000104,154.1858085999993,154.00313340000866,154.00314630000503,155.31928540000808,155.31928540000808,155.70256350000273,left,0,0.37617519999912474,None,,,,,,,,,,,,,,,,,,,,,,,,,,,,,,,,,,,,,,,,,,,,,,,,,,,,,,,,,,,,,,008,001,2023-11-12_14h25.07.176,untitled,2023.2.3,59.80786126573501,2023-11-12 14h25.16.772704 +0800,
2,condition_1/blank.PNG,space,,,,,0,19,19,9,,,,,,,,,155.78396890001022,,,,,,,,,,,,,,,,,,,,,,,,,,,,,,,,,,,,,,,,,,,,,155.7029545000114,155.78396890001022,156.21929249999812,156.2193028000038,156.70236970001133,157.03485910000745,156.9861671000108,156.98617670001113,158.46896769999876,158.46896769999876,159.35318450001068,space,1,0.8682540000008885,None,159.26846510000178,,,,,,,,,,,,,,,,,,,,,,,,,,,,,,,,,,,,,,,,,,,,,,,,,,,,,,,,,,,,,008,001,2023-11-12_14h25.07.176,untitled,2023.2.3,59.80786126573501,2023-11-12 14h25.16.772704 +0800,
8,condition_1/blank.PNG,space,,,,,0,20,20,24,,,,,,,,,159.43497339999885,,,,,,,,,,,,,,,,,,,,,,,,,,,,,,,,,,,,,,,,,,,,,159.35357420000946,159.43497339999885,159.86914330000582,159.86915389999922,160.36885620000248,160.69276080001146,160.65296050001052,160.6529695000063,161.95179669999925,161.95179669999925,163.03665819999878,space,1,1.0813452000002144,None,162.75242970000545,,,,,,,,,,,,,,,,,,,,,,,,,,,,,,,,,,,,,,,,,,,,,,,,,,,,,,,,,,,,,008,001,2023-11-12_14h25.07.176,untitled,2023.2.3,59.80786126573501,2023-11-12 14h25.16.772704 +0800,
1,condition_1/rightstar.PNG,space,,,,,0,21,21,4,,,,,,,,,163.10923000000184,,,,,,,,,,,,,,,,,,,,,,,,,,,,,,,,,,,,,,,,,,,,,163.03702930000145,163.10923000000184,163.55226770001173,163.5522775999998,164.05252830000245,164.5529460000107,164.33605640000314,164.3360670000111,165.70024310000008,165.70024310000008,166.15301609999733,right,0,0.4427970999968238,None,,,,,,,,,,,,,,,,,,,,,,,,,,,,,,,,,,,,,,,,,,,,,,,,,,,,,,,,,,,,,,008,001,2023-11-12_14h25.07.176,untitled,2023.2.3,59.80786126573501,2023-11-12 14h25.16.772704 +0800,
2,condition_1/rightstar.PNG,space,,,,,0,22,22,5,,,,,,,,,166.23506070001167,,,,,,,,,,,,,,,,,,,,,,,,,,,,,,,,,,,,,,,,,,,,,166.15354730001127,166.23506070001167,166.66909219999798,166.66910270000517,167.16895200000727,167.6689175000065,167.45287100000132,167.45288150000852,168.7683892000059,168.7683892000059,169.10214860000997,right,0,0.3244888000044739,None,,,,,,,,,,,,,,,,,,,,,,,,,,,,,,,,,,,,,,,,,,,,,,,,,,,,,,,,,,,,,,008,001,2023-11-12_14h25.07.176,untitled,2023.2.3,59.80786126573501,2023-11-12 14h25.16.772704 +0800,
8,condition_1/rightstar.PNG,right,,,,,0,23,23,23,,,,,,,,,169.1864887999982,,,,,,,,,,,,,,,,,,,,,,,,,,,,,,,,,,,,,,,,,,,,,169.10250239999732,169.1864887999982,169.61891560000367,169.6189272000047,170.10214290001022,170.602650300003,170.3856000000087,170.3856109000044,171.70154760000878,171.70154760000878,172.21963810001034,right,1,0.5066202000016347,None,,,,,,,,,,,,,,,,,,,,,,,,,,,,,,,,,,,,,,,,,,,,,,,,,,,,,,,,,,,,,,008,001,2023-11-12_14h25.07.176,untitled,2023.2.3,59.80786126573501,2023-11-12 14h25.16.772704 +0800,
2,condition_1/leftstar.PNG,space,,,,,0,24,24,1,,,,,,,,,172.3018984000082,,,,,,,,,,,,,,,,,,,,,,,,,,,,,,,,,,,,,,,,,,,,,172.22014520000084,172.3018984000082,172.73587119999866,172.73588279999967,173.21926779999922,173.68626960000256,173.50247490000038,173.50248609999835,174.83538810000755,174.83538810000755,175.36917849999736,left,0,0.521086099994136,None,,,,,,,,,,,,,,,,,,,,,,,,,,,,,,,,,,,,,,,,,,,,,,,,,,,,,,,,,,,,,,008,001,2023-11-12_14h25.07.176,untitled,2023.2.3,59.80786126573501,2023-11-12 14h25.16.772704 +0800,
2,condition_1/blank.PNG,space,,,,,1,0,25,9,,,,,,,,,175.44177090001176,,,,,,,,,,,,,,,,,,,,,,,,,,,,,,,,,,,,,,,,,,,,,175.36955030000536,175.44177090001176,175.8852792000107,175.88528940000106,176.36847719999787,176.68506610000622,176.65255880000768,176.6525699000049,178.07186219999858,178.07186219999858,178.80291040000156,space,1,0.7292176000046311,None,,,,,,,,,,,,,,,,,,,,,,,,,,,,,,,,,,,,,,,,,,,,,,,,,,,,,,,,,,,,,,008,001,2023-11-12_14h25.07.176,untitled,2023.2.3,59.80786126573501,2023-11-12 14h25.16.772704 +0800,
2,condition_1/rightstar.PNG,space,,,,,1,1,26,21,,,,,,,,,178.88596620000317,,,,,,,,,,,,,,,,,,,,,,,,,,,,,,,,,,,,,,,,,,,,,178.80329250000068,178.88596620000317,179.31846249999944,179.3184736999974,179.818391599998,180.28573490001145,180.10240319999866,180.10241520000272,181.44858960001147,181.44858960001147,181.83581570000388,right,0,0.3810877000069013,None,,,,,,,,,,,,,,,,,,,,,,,,,,,,,,,,,,,,,,,,,,,,,,,,,,,,,,,,,,,,,,008,001,2023-11-12_14h25.07.176,untitled,2023.2.3,59.80786126573501,2023-11-12 14h25.16.772704 +0800,
8,condition_1/leftstar.PNG,left,,,,,1,2,27,2,,,,,,,,,181.90332209999906,,,,,,,,,,,,,,,,,,,,,,,,,,,,,,,,,,,,,,,,,,,,,181.8362780000025,181.90332209999906,182.35269580000022,182.3527069999982,182.83567790000234,183.3189577000012,183.11909659999947,183.11910799999896,184.43498320000072,184.43498320000072,184.96966360000079,left,1,0.5305803999945056,None,,,,,,,,,,,,,,,,,,,,,,,,,,,,,,,,,,,,,,,,,,,,,,,,,,,,,,,,,,,,,,008,001,2023-11-12_14h25.07.176,untitled,2023.2.3,59.80786126573501,2023-11-12 14h25.16.772704 +0800,
1,condition_1/rightstar.PNG,space,,,,,1,3,28,4,,,,,,,,,185.05224750000343,,,,,,,,,,,,,,,,,,,,,,,,,,,,,,,,,,,,,,,,,,,,,184.97003000001132,185.05224750000343,185.48547800000233,185.48548770000343,185.98559950001072,186.45247980000568,186.26934700000857,186.26937000000908,187.58497070000158,187.58497070000158,187.98573820000456,right,0,0.3912941000016872,None,,,,,,,,,,,,,,,,,,,,,,,,,,,,,,,,,,,,,,,,,,,,,,,,,,,,,,,,,,,,,,008,001,2023-11-12_14h25.07.176,untitled,2023.2.3,59.80786126573501,2023-11-12 14h25.16.772704 +0800,
2,condition_1/leftstar.PNG,space,,,,,1,4,29,17,,,,,,,,,188.06901260001177,,,,,,,,,,,,,,,,,,,,,,,,,,,,,,,,,,,,,,,,,,,,,187.98609370000486,188.06901260001177,188.48609210000723,188.48610590001044,188.98584239999764,189.45197069999995,189.26908510000794,189.26909400000295,190.58485559999826,190.58485559999826,190.98587699999916,left,0,0.3863110999955097,None,,,,,,,,,,,,,,,,,,,,,,,,,,,,,,,,,,,,,,,,,,,,,,,,,,,,,,,,,,,,,,008,001,2023-11-12_14h25.07.176,untitled,2023.2.3,59.80786126573501,2023-11-12 14h25.16.772704 +0800,
8,condition_1/blank.PNG,space,,,,,1,5,30,10,,,,,,,,,191.05168920000142,,,,,,,,,,,,,,,,,,,,,,,,,,,,,,,,,,,,,,,,,,,,,190.98623260000022,191.05168920000142,191.50215680000838,191.502166700011,191.985843500006,192.3190542000084,192.2697821000038,192.2697935000033,193.68415529999766,193.68415529999766,196.1025234000117,space,1,2.4124584999954095,None,194.48553689999972,,,,,,,,,,,,,,,,,,,,,,,,,,,,,,,,,,,,,,,,,,,,,,,,,,,,,,,,,,,,,008,001,2023-11-12_14h25.07.176,untitled,2023.2.3,59.80786126573501,2023-11-12 14h25.16.772704 +0800,
2,condition_1/leftstar.PNG,space,,,,,1,6,31,1,,,,,,,,,196.1858504999982,,,,,,,,,,,,,,,,,,,,,,,,,,,,,,,,,,,,,,,,,,,,,196.1029358000087,196.1858504999982,196.61879269999918,196.61880300000485,197.1026467000047,197.58576590000303,197.38617579999845,197.38618529999803,198.75176959999953,198.75176959999953,199.0695005000016,left,0,0.3128036999987671,None,,,,,,,,,,,,,,,,,,,,,,,,,,,,,,,,,,,,,,,,,,,,,,,,,,,,,,,,,,,,,,008,001,2023-11-12_14h25.07.176,untitled,2023.2.3,59.80786126573501,2023-11-12 14h25.16.772704 +0800,
9,condition_1/rightstar.PNG,right,,,,,1,7,32,15,,,,,,,,,199.143834100003,,,,,,,,,,,,,,,,,,,,,,,,,,,,,,,,,,,,,,,,,,,,,199.07005500000378,199.143834100003,199.58648790000007,199.58650040000794,200.08538860001136,200.56902660000196,200.36950700001034,200.36951860001136,201.6683525999979,201.6683525999979,202.38615570000547,right,1,0.7092636000015773,None,,,,,,,,,,,,,,,,,,,,,,,,,,,,,,,,,,,,,,,,,,,,,,,,,,,,,,,,,,,,,,008,001,2023-11-12_14h25.07.176,untitled,2023.2.3,59.80786126573501,2023-11-12 14h25.16.772704 +0800,
1,condition_1/leftstar.PNG,space,,,,,1,8,33,22,,,,,,,,,202.45644220001122,,,,,,,,,,,,,,,,,,,,,,,,,,,,,,,,,,,,,,,,,,,,,202.38651029999892,202.45644220001122,202.90225569999893,202.9022665000084,203.38567840000906,203.85266129999945,203.66968300000008,203.66969300000346,204.98511350000626,204.98511350000626,205.5530856999976,left,0,0.5514996999991126,None,,,,,,,,,,,,,,,,,,,,,,,,,,,,,,,,,,,,,,,,,,,,,,,,,,,,,,,,,,,,,,008,001,2023-11-12_14h25.07.176,untitled,2023.2.3,59.80786126573501,2023-11-12 14h25.16.772704 +0800,
8,condition_1/rightstar.PNG,right,,,,,1,9,34,14,,,,,,,,,205.63527420000173,,,,,,,,,,,,,,,,,,,,,,,,,,,,,,,,,,,,,,,,,,,,,205.55351750001137,205.63527420000173,206.06887730000017,206.0688872000028,206.56883150000067,207.052002299999,206.85384960001102,206.853864100005,208.15163890000258,208.15163890000258,208.60290130000794,right,1,0.44078299999819137,None,,,,,,,,,,,,,,,,,,,,,,,,,,,,,,,,,,,,,,,,,,,,,,,,,,,,,,,,,,,,,,008,001,2023-11-12_14h25.07.176,untitled,2023.2.3,59.80786126573501,2023-11-12 14h25.16.772704 +0800,
1,condition_1/leftstar.PNG,space,,,,,1,10,35,0,,,,,,,,,208.68522300000768,,,,,,,,,,,,,,,,,,,,,,,,,,,,,,,,,,,,,,,,,,,,,208.60326070000883,208.68522300000768,209.1187670000072,209.11877830000594,209.6023761000106,210.08567179999955,209.88628520000202,209.88629560000845,211.20143149999785,211.20143149999785,211.95317020000948,space,1,0.7358633000112604,None,,,,,,,,,,,,,,,,,,,,,,,,,,,,,,,,,,,,,,,,,,,,,,,,,,,,,,,,,,,,,,008,001,2023-11-12_14h25.07.176,untitled,2023.2.3,59.80786126573501,2023-11-12 14h25.16.772704 +0800,
1,condition_1/rightstar.PNG,space,,,,,1,11,36,12,,,,,,,,,212.02866920000815,,,,,,,,,,,,,,,,,,,,,,,,,,,,,,,,,,,,,,,,,,,,,211.95355390000623,212.02866920000815,212.46939600000042,212.4694090999983,212.96890170000552,213.452517800004,213.25345990000642,213.25347589999728,214.5518863000034,214.5518863000034,215.01962710000225,space,1,0.46522640000330284,None,,,,,,,,,,,,,,,,,,,,,,,,,,,,,,,,,,,,,,,,,,,,,,,,,,,,,,,,,,,,,,008,001,2023-11-12_14h25.07.176,untitled,2023.2.3,59.80786126573501,2023-11-12 14h25.16.772704 +0800,
1,condition_1/leftstar.PNG,space,,,,,1,12,37,16,,,,,,,,,215.08515470000566,,,,,,,,,,,,,,,,,,,,,,,,,,,,,,,,,,,,,,,,,,,,,215.02007270000468,215.08515470000566,215.5357636000117,215.53577360000054,216.01945230001002,216.48601580000832,216.30281160000595,216.30282979999902,217.63503460001084,217.63503460001084,218.30285190000723,space,1,0.665408100001514,None,,,,,,,,,,,,,,,,,,,,,,,,,,,,,,,,,,,,,,,,,,,,,,,,,,,,,,,,,,,,,,008,001,2023-11-12_14h25.07.176,untitled,2023.2.3,59.80786126573501,2023-11-12 14h25.16.772704 +0800,
2,condition_1/rightstar.PNG,space,,,,,1,13,38,5,,,,,,,,,218.38515820000612,,,,,,,,,,,,,,,,,,,,,,,,,,,,,,,,,,,,,,,,,,,,,218.30321920001006,218.38515820000612,218.81891120001092,218.81892220000736,219.31840240000747,219.78557659999933,219.60303040000144,219.60304260000703,220.90147190001153,220.90147190001153,221.35347100000945,space,1,0.43590889999177307,None,,,,,,,,,,,,,,,,,,,,,,,,,,,,,,,,,,,,,,,,,,,,,,,,,,,,,,,,,,,,,,008,001,2023-11-12_14h25.07.176,untitled,2023.2.3,59.80786126573501,2023-11-12 14h25.16.772704 +0800,
9,condition_1/leftstar.PNG,left,,,,,1,14,39,20,,,,,,,,,221.43511279999802,,,,,,,,,,,,,,,,,,,,,,,,,,,,,,,,,,,,,,,,,,,,,221.35389470000518,221.43511279999802,221.8685778000072,221.86858930000744,222.3690312000108,222.8352312000061,222.6525210000109,222.65253459999803,223.9686298000015,223.9686298000015,224.5695187000092,left,1,0.588872899999842,None,,,,,,,,,,,,,,,,,,,,,,,,,,,,,,,,,,,,,,,,,,,,,,,,,,,,,,,,,,,,,,008,001,2023-11-12_14h25.07.176,untitled,2023.2.3,59.80786126573501,2023-11-12 14h25.16.772704 +0800,
8,condition_1/rightstar.PNG,right,,,,,1,15,40,23,,,,,,,,,224.65219750000688,,,,,,,,,,,,,,,,,,,,,,,,,,,,,,,,,,,,,,,,,,,,,224.56989969999995,224.65219750000688,225.08576010000252,225.08577050000895,225.5687237000093,226.05263910000212,225.853449000002,225.8534656999982,227.1851602000097,227.1851602000097,227.75242509999953,right,1,0.5613791000068886,None,,,,,,,,,,,,,,,,,,,,,,,,,,,,,,,,,,,,,,,,,,,,,,,,,,,,,,,,,,,,,,008,001,2023-11-12_14h25.07.176,untitled,2023.2.3,59.80786126573501,2023-11-12 14h25.16.772704 +0800,
9,condition_1/leftstar.PNG,left,,,,,1,16,41,19,,,,,,,,,227.82278290000977,,,,,,,,,,,,,,,,,,,,,,,,,,,,,,,,,,,,,,,,,,,,,227.75286259999848,227.82278290000977,228.26881819999835,228.26882890000707,228.7521134999988,229.21945869999763,229.0360772999993,229.0360895000049,230.35188149999885,230.35188149999885,230.90314740000758,left,1,0.5477027000015369,None,,,,,,,,,,,,,,,,,,,,,,,,,,,,,,,,,,,,,,,,,,,,,,,,,,,,,,,,,,,,,,008,001,2023-11-12_14h25.07.176,untitled,2023.2.3,59.80786126573501,2023-11-12 14h25.16.772704 +0800,
9,condition_1/leftstar.PNG,left,,,,,1,17,42,3,,,,,,,,,230.97077340001124,,,,,,,,,,,,,,,,,,,,,,,,,,,,,,,,,,,,,,,,,,,,,230.9035683000111,230.97077340001124,231.41922660000273,231.41923749999842,231.90212830000382,232.3694555000111,232.18594419999863,232.18595420000202,233.51828360000218,233.51828360000218,233.88630199999898,left,1,0.36072450000210665,None,,,,,,,,,,,,,,,,,,,,,,,,,,,,,,,,,,,,,,,,,,,,,,,,,,,,,,,,,,,,,,008,001,2023-11-12_14h25.07.176,untitled,2023.2.3,59.80786126573501,2023-11-12 14h25.16.772704 +0800,
1,condition_1/blank.PNG,space,,,,,1,18,43,8,,,,,,,,,233.95175820001168,,,,,,,,,,,,,,,,,,,,,,,,,,,,,,,,,,,,,,,,,,,,,233.8866616000014,233.95175820001168,234.40178800000285,234.40179940000235,234.90176690000226,235.2185756000108,235.18585310000344,235.1858801000053,236.58509490000142,236.58509490000142,236.9367624000006,space,1,0.34874619999027345,None,,,,,,,,,,,,,,,,,,,,,,,,,,,,,,,,,,,,,,,,,,,,,,,,,,,,,,,,,,,,,,008,001,2023-11-12_14h25.07.176,untitled,2023.2.3,59.80786126573501,2023-11-12 14h25.16.772704 +0800,
8,condition_1/rightstar.PNG,right,,,,,1,19,44,6,,,,,,,,,237.00259260000894,,,,,,,,,,,,,,,,,,,,,,,,,,,,,,,,,,,,,,,,,,,,,236.93713570000546,237.00259260000894,237.4525283999974,237.45254009999917,237.95157980000658,238.41905090000364,238.23552570000174,238.23553540000285,239.60257640000782,239.60257640000782,239.93603530000837,right,1,0.3246969000028912,None,,,,,,,,,,,,,,,,,,,,,,,,,,,,,,,,,,,,,,,,,,,,,,,,,,,,,,,,,,,,,,008,001,2023-11-12_14h25.07.176,untitled,2023.2.3,59.80786126573501,2023-11-12 14h25.16.772704 +0800,
2,condition_1/rightstar.PNG,space,,,,,1,20,45,13,,,,,,,,,240.00164800000493,,,,,,,,,,,,,,,,,,,,,,,,,,,,,,,,,,,,,,,,,,,,,239.9363874999981,240.00164800000493,240.43641070000012,240.4364207000035,240.9360572000005,241.4027855000022,241.21950240001024,241.21951460000128,242.5349847000034,242.5349847000034,243.11963690000994,space,1,0.5831860000034794,None,,,,,,,,,,,,,,,,,,,,,,,,,,,,,,,,,,,,,,,,,,,,,,,,,,,,,,,,,,,,,,008,001,2023-11-12_14h25.07.176,untitled,2023.2.3,59.80786126573501,2023-11-12 14h25.16.772704 +0800,
9,condition_1/blank.PNG,space,,,,,1,21,46,11,,,,,,,,,243.20230450000963,,,,,,,,,,,,,,,,,,,,,,,,,,,,,,,,,,,,,,,,,,,,,243.12002040000516,243.20230450000963,243.63560760000837,243.63561820000177,244.11885070000426,244.43526220000058,244.4026758000109,244.40268800000194,245.8857532999973,245.8857532999973,246.18631550000282,space,1,0.2978053999977419,None,,,,,,,,,,,,,,,,,,,,,,,,,,,,,,,,,,,,,,,,,,,,,,,,,,,,,,,,,,,,,,008,001,2023-11-12_14h25.07.176,untitled,2023.2.3,59.80786126573501,2023-11-12 14h25.16.772704 +0800,
9,condition_1/rightstar.PNG,right,,,,,1,22,47,7,,,,,,,,,246.2637822000106,,,,,,,,,,,,,,,,,,,,,,,,,,,,,,,,,,,,,,,,,,,,,246.186683500011,246.2637822000106,246.70255519999773,246.70256650001102,247.1855945999996,247.65262990001065,247.4691770000063,247.46918830000504,248.83518080000067,248.83518080000067,249.18617559999984,right,1,0.33789309998974204,None,,,,,,,,,,,,,,,,,,,,,,,,,,,,,,,,,,,,,,,,,,,,,,,,,,,,,,,,,,,,,,008,001,2023-11-12_14h25.07.176,untitled,2023.2.3,59.80786126573501,2023-11-12 14h25.16.772704 +0800,
8,condition_1/blank.PNG,space,,,,,1,23,48,24,,,,,,,,,249.26466050000454,,,,,,,,,,,,,,,,,,,,,,,,,,,,,,,,,,,,,,,,,,,,,249.18660580000142,249.26466050000454,249.70217520000006,249.70218540000496,250.18567370000528,250.50156590000552,250.4691976000031,250.46920750000572,251.86157540000568,251.86157540000568,253.38644159999967,space,1,1.523952500006999,None,252.66838740000094,,,,,,,,,,,,,,,,,,,,,,,,,,,,,,,,,,,,,,,,,,,,,,,,,,,,,,,,,,,,,008,001,2023-11-12_14h25.07.176,untitled,2023.2.3,59.80786126573501,2023-11-12 14h25.16.772704 +0800,
8,condition_1/leftstar.PNG,left,,,,,1,24,49,18,,,,,,,,,253.4520601999975,,,,,,,,,,,,,,,,,,,,,,,,,,,,,,,,,,,,,,,,,,,,,253.3867995000037,253.4520601999975,253.90219090000028,253.9022011000052,254.40229620000173,254.88585269999749,254.68659150000894,254.68660140001157,256.03568420000374,256.03568420000374,256.55329039999924,left,1,0.5077213999902597,None,,,,,,,,,,,,,,,,,,,,,,,,,,,,,,,,,,,,,,,,,,,,,,,,,,,,,,,,,,,,,,008,001,2023-11-12_14h25.07.176,untitled,2023.2.3,59.80786126573501,2023-11-12 14h25.16.772704 +0800,
,,,,,,,,,,,,,,,,,,,,,,,,,,,,,,,,,,,,,,,,,,,,,,,,,,,,,,,,,,,,,,,,,,,,,,,,,,,,,,,,256.5535702000052,256.5684423000057,256.5684423000057,265.5023562999995,space,8.926117399998475,None,,,,,,,,,,,,,,,,,,,,,,,,,,,,,,,,,,,,,,,,,,,,,,,,,,,,,,008,001,2023-11-12_14h25.07.176,untitled,2023.2.3,59.80786126573501,2023-11-12 14h25.16.772704 +0800,
,,,,,,,,,,,,,,,,,,,,,,,,,,,,,,,,,,,,,,,,,,,,,,,,,,,,,,,,,,,,,,,,,,,,,,,,,,,,,,,,,,,,,,,265.5023846000113,265.51826979999896,265.51826979999896,288.9524247000081,space,23.41886780000641,None,,,,,,,,,,,,,,,,,,,,,,,,,,,,,,,,,,,,,,,,,,,,,,,008,001,2023-11-12_14h25.07.176,untitled,2023.2.3,59.80786126573501,2023-11-12 14h25.16.772704 +0800,
1,test2/leftstar.PNG,left,,,,,,,,,0,0,0,0,,,,,289.0356490999984,,,,,,,,,,,,,,,,,,,,,,,,,,,,,,,,,,,,,,,,,,,,,,,,,,,,,,,,,,,,,,,,,,,,,,,,,,,288.95675630000187,289.0356490999984,289.46883080000407,289.468841599999,289.95179669999925,290.43580780000775,290.2352119999996,290.2352225000068,291.5684617000079,291.5684617000079,292.07005090000166,left,0.4843428000021959,None,,,,,,,,,,,,,,,,,,,,,,,,,,,,,,,,,008,001,2023-11-12_14h25.07.176,untitled,2023.2.3,59.80786126573501,2023-11-12 14h25.16.772704 +0800,
1,test2/blank.PNG,space,,,,,,,,,0,1,1,2,,,,,292.1525532000087,,,,,,,,,,,,,,,,,,,,,,,,,,,,,,,,,,,,,,,,,,,,,,,,,,,,,,,,,,,,,,,,,,,,,,,,,,,292.07053050000104,292.1525532000087,292.5859544999985,292.5859683000017,293.0853732000105,293.40172190000885,293.36929370000144,293.36930479999864,294.85201170000073,294.85201170000073,295.16950129999896,space,0.31562290000147186,None,,,,,,,,,,,,,,,,,,,,,,,,,,,,,,,,,008,001,2023-11-12_14h25.07.176,untitled,2023.2.3,59.80786126573501,2023-11-12 14h25.16.772704 +0800,
9,test2/rightstar.PNG,space,,,,,,,,,0,2,2,3,,,,,295.25222850000137,,,,,,,,,,,,,,,,,,,,,,,,,,,,,,,,,,,,,,,,,,,,,,,,,,,,,,,,,,,,,,,,,,,,,,,,,,,295.16984980000416,295.25222850000137,295.6860674000054,295.68607870000415,296.16869760000554,296.65211900000577,296.4528161000053,296.4528277000063,297.8184456000017,297.8184456000017,298.51916399999755,space,0.6864110000024084,None,,,,,,,,,,,,,,,,,,,,,,,,,,,,,,,,,008,001,2023-11-12_14h25.07.176,untitled,2023.2.3,59.80786126573501,2023-11-12 14h25.16.772704 +0800,
8,test2/rightstar.PNG,space,,,,,,,,,0,3,3,5,,,,,298.60169350000797,,,,,,,,,,,,,,,,,,,,,,,,,,,,,,,,,,,,,,,,,,,,,,,,,,,,,,,,,,,,,,,,,,,,,,,,,,,298.51950080000097,298.60169350000797,299.0356482000061,299.0356604999979,299.518677,299.9850479000015,299.8043880000041,299.80440010000893,301.1179217000026,301.1179217000026,301.65236330000334,space,0.5192341000074521,None,,,,,,,,,,,,,,,,,,,,,,,,,,,,,,,,,008,001,2023-11-12_14h25.07.176,untitled,2023.2.3,59.80786126573501,2023-11-12 14h25.16.772704 +0800,
2,test2/leftstar.PNG,left,,,,,,,,,0,4,4,4,,,,,301.7248077999975,,,,,,,,,,,,,,,,,,,,,,,,,,,,,,,,,,,,,,,,,,,,,,,,,,,,,,,,,,,,,,,,,,,,,,,,,,,301.6527705000044,301.7248077999975,302.1691967000079,302.16920770000434,302.6525151000096,303.1354345,302.93649059999734,302.9365015000076,304.25151230000483,304.25151230000483,304.6860502000054,left,0.43092349999642465,None,,,,,,,,,,,,,,,,,,,,,,,,,,,,,,,,,008,001,2023-11-12_14h25.07.176,untitled,2023.2.3,59.80786126573501,2023-11-12 14h25.16.772704 +0800,
8,test2/rightstar.PNG,space,,,,,,,,,0,5,5,1,,,,,304.7508169000066,,,,,,,,,,,,,,,,,,,,,,,,,,,,,,,,,,,,,,,,,,,,,,,,,,,,,,,,,,,,,,,,,,,,,,,,,,,304.6863644999976,304.7508169000066,305.2023093000025,305.2023227000027,305.6853598000016,306.1693830000004,305.969265000007,305.9692761000042,307.2849477999989,307.2849477999989,307.70277709999937,space,0.4114246999961324,None,,,,,,,,,,,,,,,,,,,,,,,,,,,,,,,,,008,001,2023-11-12_14h25.07.176,untitled,2023.2.3,59.80786126573501,2023-11-12 14h25.16.772704 +0800,
,,,,,,,,,,,,,,,,,,,,,,,,,,,,,,,,,,,,,,,,,,,,,,,,,,,,,,,,,,,,,,,,,,,,,,,,,,,,,,,,,,,,,,,,,,,,,,,,,,,,,,,,,,,,307.7030233000114,307.7181982000038,307.7181982000038,308.7188022000046,313.6201138000033,space,5.898276099993382,None,,,,,,,,,,,,,,,,,,,,,,,,,008,001,2023-11-12_14h25.07.176,untitled,2023.2.3,59.80786126573501,2023-11-12 14h25.16.772704 +0800,
,,,,,,,,,,,,,,,,,,,,,,,,,,,,,,,,,,,,,,,,,,,,,,,,,,,,,,,,,,,,,,,,,,,,,,,,,,,,,,,,,,,,,,,,,,,,,,,,,,,,,,,,,,,,,,,,,,,,313.62014110000746,313.63566850000643,313.63566850000643,314.6355084000097,316.8716151000117,space,3.2331517999991775,None,,,,,,,,,,,,,,,,,008,001,2023-11-12_14h25.07.176,untitled,2023.2.3,59.80786126573501,2023-11-12 14h25.16.772704 +0800,
8,condition_2/blank.PNG,space,,,,,,,,,,,,,0,0,0,10,316.95156830000633,,,,,,,,,,,,,,,,,,,,,,,,,,,,,,,,,,,,,,,,,,,,,,,,,,,,,,,,,,,,,,,,,,,,,,,,,,,,,,,,,,,,,,,,,,,,,,,,,,,,,,,,,316.8770338000031,316.95156830000633,317.38566870000795,317.38568130000203,317.8854419999989,318.20337329999893,318.16916960000526,318.1691823000001,319.48533310000494,319.48533310000494,320.28530860001047,320.75350050001,space,1,1.267029900001944,None,008,001,2023-11-12_14h25.07.176,untitled,2023.2.3,59.80786126573501,2023-11-12 14h25.16.772704 +0800,
9,condition_2/leftstar.PNG,space,,,,,,,,,,,,,0,1,1,3,320.82579380000243,,,,,,,,,,,,,,,,,,,,,,,,,,,,,,,,,,,,,,,,,,,,,,,,,,,,,,,,,,,,,,,,,,,,,,,,,,,,,,,,,,,,,,,,,,,,,,,,,,,,,,,,,320.7541043000092,320.82579380000243,321.26872570000705,321.2687386000034,321.76862610000535,322.25216970000474,322.05243640000117,322.0524479000014,323.41309580000234,323.41309580000234,,323.9353415000078,left,0,0.5162990000098944,None,008,001,2023-11-12_14h25.07.176,untitled,2023.2.3,59.80786126573501,2023-11-12 14h25.16.772704 +0800,
2,condition_2/rightstar.PNG,right,,,,,,,,,,,,,0,2,2,13,324.01119240000844,,,,,,,,,,,,,,,,,,,,,,,,,,,,,,,,,,,,,,,,,,,,,,,,,,,,,,,,,,,,,,,,,,,,,,,,,,,,,,,,,,,,,,,,,,,,,,,,,,,,,,,,,323.9356886000023,324.01119240000844,324.45245490000525,324.452466600007,324.9357868000079,325.41898790000414,325.2192614000087,325.21927310001047,326.534830900011,326.534830900011,,326.93595579999965,right,1,0.3980003000033321,None,008,001,2023-11-12_14h25.07.176,untitled,2023.2.3,59.80786126573501,2023-11-12 14h25.16.772704 +0800,
1,condition_2/rightstar.PNG,right,,,,,,,,,,,,,0,3,3,21,327.0039900999982,,,,,,,,,,,,,,,,,,,,,,,,,,,,,,,,,,,,,,,,,,,,,,,,,,,,,,,,,,,,,,,,,,,,,,,,,,,,,,,,,,,,,,,,,,,,,,,,,,,,,,,,,326.9363243000116,327.0039900999982,327.4520762000029,327.4520879000047,327.9353085000039,328.4022149000084,328.21906010000384,328.21907120000105,329.5349794000067,329.5349794000067,,330.0022115000029,right,1,0.45095530000980943,None,008,001,2023-11-12_14h25.07.176,untitled,2023.2.3,59.80786126573501,2023-11-12 14h25.16.772704 +0800,
8,condition_2/rightstar.PNG,space,,,,,,,,,,,,,0,4,4,14,330.0712705000042,,,,,,,,,,,,,,,,,,,,,,,,,,,,,,,,,,,,,,,,,,,,,,,,,,,,,,,,,,,,,,,,,,,,,,,,,,,,,,,,,,,,,,,,,,,,,,,,,,,,,,,,,330.00257950001105,330.0712705000042,330.51911819999805,330.519131699999,331.0019686000014,331.48538220000046,331.28591459999734,331.28592510000453,332.60150980000617,332.60150980000617,,333.00292530001025,space,1,0.3886973000044236,None,008,001,2023-11-12_14h25.07.176,untitled,2023.2.3,59.80786126573501,2023-11-12 14h25.16.772704 +0800,
9,condition_2/blank.PNG,space,,,,,,,,,,,,,0,5,5,11,333.07018110000354,,,,,,,,,,,,,,,,,,,,,,,,,,,,,,,,,,,,,,,,,,,,,,,,,,,,,,,,,,,,,,,,,,,,,,,,,,,,,,,,,,,,,,,,,,,,,,,,,,,,,,,,,333.0033914000087,333.07018110000354,333.51876430000993,333.5187764000002,334.0186471000052,334.33936260000337,334.302689300006,334.3027007000055,335.69673730000795,335.69673730000795,,336.16928539999935,space,1,0.46136760000081267,None,008,001,2023-11-12_14h25.07.176,untitled,2023.2.3,59.80786126573501,2023-11-12 14h25.16.772704 +0800,
2,condition_2/leftstar.PNG,left,,,,,,,,,,,,,0,6,6,1,336.23404130000563,,,,,,,,,,,,,,,,,,,,,,,,,,,,,,,,,,,,,,,,,,,,,,,,,,,,,,,,,,,,,,,,,,,,,,,,,,,,,,,,,,,,,,,,,,,,,,,,,,,,,,,,,336.16964649999863,336.23404130000563,336.6850803999987,336.6851000000024,337.16831520000414,337.6359230000089,337.4519134000002,337.4519228999998,338.81169919999957,338.81169919999957,,339.168860100006,left,1,0.3476760999910766,None,008,001,2023-11-12_14h25.07.176,untitled,2023.2.3,59.80786126573501,2023-11-12 14h25.16.772704 +0800,
2,condition_2/blank.PNG,space,,,,,,,,,,,,,0,7,7,9,339.2358233999985,,,,,,,,,,,,,,,,,,,,,,,,,,,,,,,,,,,,,,,,,,,,,,,,,,,,,,,,,,,,,,,,,,,,,,,,,,,,,,,,,,,,,,,,,,,,,,,,,,,,,,,,,339.16929030000756,339.2358233999985,339.6851278000104,339.6851388000068,340.16871360001096,340.4839159000112,340.4525208999985,340.4525319000095,341.8685913000081,341.8685913000081,342.6689269000053,342.7862916000013,space,1,0.9031180000019958,None,008,001,2023-11-12_14h25.07.176,untitled,2023.2.3,59.80786126573501,2023-11-12 14h25.16.772704 +0800,
1,condition_2/rightstar.PNG,right,,,,,,,,,,,,,0,8,8,12,342.8506660999992,,,,,,,,,,,,,,,,,,,,,,,,,,,,,,,,,,,,,,,,,,,,,,,,,,,,,,,,,,,,,,,,,,,,,,,,,,,,,,,,,,,,,,,,,,,,,,,,,,,,,,,,,342.7867355000053,342.8506660999992,343.3020971000078,343.3021090999973,343.8021760999982,344.2854501000111,344.085571100004,344.0855811000074,345.44326120000915,345.44326120000915,,346.152691700001,right,1,0.707328200005577,None,008,001,2023-11-12_14h25.07.176,untitled,2023.2.3,59.80786126573501,2023-11-12 14h25.16.772704 +0800,
1,condition_2/blank.PNG,space,,,,,,,,,,,,,0,9,9,8,346.222322600006,,,,,,,,,,,,,,,,,,,,,,,,,,,,,,,,,,,,,,,,,,,,,,,,,,,,,,,,,,,,,,,,,,,,,,,,,,,,,,,,,,,,,,,,,,,,,,,,,,,,,,,,,346.15305760000774,346.222322600006,346.6684357000049,346.66844649999985,347.1688092000113,347.4836559000105,347.45257750000746,347.45258920000924,348.8425431000069,348.8425431000069,349.65264490000845,350.45253200001025,left,0,1.5936400999926263,None,008,001,2023-11-12_14h25.07.176,untitled,2023.2.3,59.80786126573501,2023-11-12 14h25.16.772704 +0800,
8,condition_2/rightstar.PNG,space,,,,,,,,,,,,,0,10,10,6,350.5181816000113,,,,,,,,,,,,,,,,,,,,,,,,,,,,,,,,,,,,,,,,,,,,,,,,,,,,,,,,,,,,,,,,,,,,,,,,,,,,,,,,,,,,,,,,,,,,,,,,,,,,,,,,,350.45291920000454,350.5181816000113,350.9536558000109,350.9536694999988,351.45198569999775,351.9355212000082,351.7357802000042,351.7357917000045,353.1016321000061,353.1016321000061,,353.5373440999974,space,1,0.43268719999468885,None,008,001,2023-11-12_14h25.07.176,untitled,2023.2.3,59.80786126573501,2023-11-12 14h25.16.772704 +0800,
1,condition_2/leftstar.PNG,left,,,,,,,,,,,,,0,11,11,0,353.60825340000156,,,,,,,,,,,,,,,,,,,,,,,,,,,,,,,,,,,,,,,,,,,,,,,,,,,,,,,,,,,,,,,,,,,,,,,,,,,,,,,,,,,,,,,,,,,,,,,,,,,,,,,,,353.5377831000078,353.60825340000156,354.0522306000057,354.0522440000059,354.55194889999984,355.0188699999999,354.8366007000004,354.8366118999984,356.1514354000101,356.1514354000101,,356.66955810000945,left,1,0.5155985000019427,None,008,001,2023-11-12_14h25.07.176,untitled,2023.2.3,59.80786126573501,2023-11-12 14h25.16.772704 +0800,
9,condition_2/rightstar.PNG,space,,,,,,,,,,,,,0,12,12,7,356.75205460000143,,,,,,,,,,,,,,,,,,,,,,,,,,,,,,,,,,,,,,,,,,,,,,,,,,,,,,,,,,,,,,,,,,,,,,,,,,,,,,,,,,,,,,,,,,,,,,,,,,,,,,,,,356.66992510001,356.75205460000143,357.18576100000064,357.18577260000166,357.6686897000036,358.1354984000063,357.9535337999987,357.9535451999982,359.28462380000565,359.28462380000565,,359.61940100000356,space,1,0.3329099000111455,None,008,001,2023-11-12_14h25.07.176,untitled,2023.2.3,59.80786126573501,2023-11-12 14h25.16.772704 +0800,
8,condition_2/rightstar.PNG,space,,,,,,,,,,,,,0,13,13,23,359.6898923000117,,,,,,,,,,,,,,,,,,,,,,,,,,,,,,,,,,,,,,,,,,,,,,,,,,,,,,,,,,,,,,,,,,,,,,,,,,,,,,,,,,,,,,,,,,,,,,,,,,,,,,,,,359.61979480000446,359.6898923000117,360.1355035000015,360.13551440001174,360.6355724000023,361.1191378000076,360.9190696000005,360.9190807999985,362.2180272000114,362.2180272000114,,362.71916380000766,space,1,0.4978917999978876,None,008,001,2023-11-12_14h25.07.176,untitled,2023.2.3,59.80786126573501,2023-11-12 14h25.16.772704 +0800,
9,condition_2/leftstar.PNG,space,,,,,,,,,,,,,0,14,14,24,362.8019662000006,,,,,,,,,,,,,,,,,,,,,,,,,,,,,,,,,,,,,,,,,,,,,,,,,,,,,,,,,,,,,,,,,,,,,,,,,,,,,,,,,,,,,,,,,,,,,,,,,,,,,,,,,362.71952579999925,362.8019662000006,363.2194726000016,363.21948440000415,363.71848650000175,364.202194700003,364.0025105000095,364.0025211000029,365.3182558000117,365.3182558000117,,365.78802750000614,space,1,0.46301509998738766,None,008,001,2023-11-12_14h25.07.176,untitled,2023.2.3,59.80786126573501,2023-11-12 14h25.16.772704 +0800,
2,condition_2/blank.PNG,space,,,,,,,,,,,,,0,15,15,20,365.8688065000024,,,,,,,,,,,,,,,,,,,,,,,,,,,,,,,,,,,,,,,,,,,,,,,,,,,,,,,,,,,,,,,,,,,,,,,,,,,,,,,,,,,,,,,,,,,,,,,,,,,,,,,,,365.7885830000014,365.8688065000024,366.3021754000074,366.3021887000068,366.80180480000854,367.1356569000054,367.0856061000086,367.0856160000112,368.4971405000106,368.4971405000106,369.3022123999981,376.6212372000009,space,1,8.122657899992191,None,008,001,2023-11-12_14h25.07.176,untitled,2023.2.3,59.80786126573501,2023-11-12 14h25.16.772704 +0800,
2,condition_2/rightstar.PNG,left,,,,,,,,,,,,,0,16,16,5,376.6868367999996,,,,,,,,,,,,,,,,,,,,,,,,,,,,,,,,,,,,,,,,,,,,,,,,,,,,,,,,,,,,,,,,,,,,,,,,,,,,,,,,,,,,,,,,,,,,,,,,,,,,,,,,,376.6217258000106,376.6868367999996,377.13521240001137,377.13522560001,377.6354197000037,378.11894369999936,377.9189955000038,377.919006000011,379.27874020001036,379.27874020001036,,379.8191996000096,right,0,0.5283256999973673,None,008,001,2023-11-12_14h25.07.176,untitled,2023.2.3,59.80786126573501,2023-11-12 14h25.16.772704 +0800,
8,condition_2/leftstar.PNG,space,,,,,,,,,,,,,0,17,17,2,379.8858038000035,,,,,,,,,,,,,,,,,,,,,,,,,,,,,,,,,,,,,,,,,,,,,,,,,,,,,,,,,,,,,,,,,,,,,,,,,,,,,,,,,,,,,,,,,,,,,,,,,,,,,,,,,379.8195859000116,379.8858038000035,380.3353972000041,380.33540820000053,380.8189335000061,381.2855267999985,381.10225380001066,381.10226749999856,382.41848449999816,382.41848449999816,,382.8032649000088,space,1,0.37456810000003316,None,008,001,2023-11-12_14h25.07.176,untitled,2023.2.3,59.80786126573501,2023-11-12 14h25.16.772704 +0800,
9,condition_2/rightstar.PNG,space,,,,,,,,,,,,,0,18,18,15,382.88534100000106,,,,,,,,,,,,,,,,,,,,,,,,,,,,,,,,,,,,,,,,,,,,,,,,,,,,,,,,,,,,,,,,,,,,,,,,,,,,,,,,,,,,,,,,,,,,,,,,,,,,,,,,,382.8036414000089,382.88534100000106,383.3195931000082,383.3196217000077,383.8185394000029,384.30236230000446,384.10260969999945,384.1026244000095,385.4182365000015,385.4182365000015,386.2181014000089,388.202074300003,space,1,2.7734385000076145,None,008,001,2023-11-12_14h25.07.176,untitled,2023.2.3,59.80786126573501,2023-11-12 14h25.16.772704 +0800,
1,condition_2/leftstar.PNG,left,,,,,,,,,,,,,0,19,19,16,388.2691257000115,,,,,,,,,,,,,,,,,,,,,,,,,,,,,,,,,,,,,,,,,,,,,,,,,,,,,,,,,,,,,,,,,,,,,,,,,,,,,,,,,,,,,,,,,,,,,,,,,,,,,,,,,388.2024347999977,388.2691257000115,388.702394500011,388.70240600001125,389.2025380999985,389.668815099998,389.4861132000078,389.48612420000427,390.8015652000031,390.8015652000031,,391.3521180000098,left,1,0.549118199996883,None,008,001,2023-11-12_14h25.07.176,untitled,2023.2.3,59.80786126573501,2023-11-12 14h25.16.772704 +0800,
8,condition_2/leftstar.PNG,space,,,,,,,,,,,,,0,20,20,18,391.4226093000034,,,,,,,,,,,,,,,,,,,,,,,,,,,,,,,,,,,,,,,,,,,,,,,,,,,,,,,,,,,,,,,,,,,,,,,,,,,,,,,,,,,,,,,,,,,,,,,,,,,,,,,,,391.3524851999973,391.4226093000034,391.86852970000473,391.86854270000185,392.35138279999956,392.8188475000061,392.63542030000826,392.63543429999845,393.95219200001156,393.95219200001156,,394.4695295999991,space,1,0.5139216000097804,None,008,001,2023-11-12_14h25.07.176,untitled,2023.2.3,59.80786126573501,2023-11-12 14h25.16.772704 +0800,
1,condition_2/rightstar.PNG,right,,,,,,,,,,,,,0,21,21,4,394.54485099999874,,,,,,,,,,,,,,,,,,,,,,,,,,,,,,,,,,,,,,,,,,,,,,,,,,,,,,,,,,,,,,,,,,,,,,,,,,,,,,,,,,,,,,,,,,,,,,,,,,,,,,,,,394.4699038000108,394.54485099999874,394.98519520000264,394.98520680000365,395.48520350000763,395.93491599999834,395.76920619999873,395.76921740001126,397.0683185000089,397.0683185000089,,397.48621110001113,right,1,0.41582629999902565,None,008,001,2023-11-12_14h25.07.176,untitled,2023.2.3,59.80786126573501,2023-11-12 14h25.16.772704 +0800,
2,condition_2/leftstar.PNG,left,,,,,,,,,,,,,0,22,22,17,397.56855560000986,,,,,,,,,,,,,,,,,,,,,,,,,,,,,,,,,,,,,,,,,,,,,,,,,,,,,,,,,,,,,,,,,,,,,,,,,,,,,,,,,,,,,,,,,,,,,,,,,,,,,,,,,397.48662680000416,397.56855560000986,398.00209360000736,398.0021061000007,398.50195320000057,398.9516835000104,398.78562560000864,398.7856451999978,400.1014406000031,400.1014406000031,,400.65240990000893,left,1,0.5455539999966277,None,008,001,2023-11-12_14h25.07.176,untitled,2023.2.3,59.80786126573501,2023-11-12 14h25.16.772704 +0800,
9,condition_2/leftstar.PNG,space,,,,,,,,,,,,,0,23,23,19,400.7204155000072,,,,,,,,,,,,,,,,,,,,,,,,,,,,,,,,,,,,,,,,,,,,,,,,,,,,,,,,,,,,,,,,,,,,,,,,,,,,,,,,,,,,,,,,,,,,,,,,,,,,,,,,,400.65287440000975,400.7204155000072,401.1685961000039,401.1686168000015,401.6525646000082,402.11906710000767,401.93609760000254,401.9361098000081,403.25143180000305,403.25143180000305,,403.6359320000047,space,1,0.37755389999074396,None,008,001,2023-11-12_14h25.07.176,untitled,2023.2.3,59.80786126573501,2023-11-12 14h25.16.772704 +0800,
2,condition_2/leftstar.PNG,left,,,,,,,,,,,,,0,24,24,22,403.7181408000033,,,,,,,,,,,,,,,,,,,,,,,,,,,,,,,,,,,,,,,,,,,,,,,,,,,,,,,,,,,,,,,,,,,,,,,,,,,,,,,,,,,,,,,,,,,,,,,,,,,,,,,,,403.63635010000144,403.7181408000033,404.1519619000028,404.15197479999915,404.65238020000106,405.1353477000084,404.93577730000834,404.93579010000394,406.2513695000089,406.2513695000089,,406.769415200004,left,1,0.5027119000005769,None,008,001,2023-11-12_14h25.07.176,untitled,2023.2.3,59.80786126573501,2023-11-12 14h25.16.772704 +0800,
9,condition_2/blank.PNG,space,,,,,,,,,,,,,1,0,25,11,406.83782529999735,,,,,,,,,,,,,,,,,,,,,,,,,,,,,,,,,,,,,,,,,,,,,,,,,,,,,,,,,,,,,,,,,,,,,,,,,,,,,,,,,,,,,,,,,,,,,,,,,,,,,,,,,406.7699345000001,406.83782529999735,407.28502819999994,407.2850404000055,407.786342899999,408.1189841000014,408.0692068000062,408.06922050000867,409.5352164000069,409.5352164000069,410.3354774000036,410.65240659999836,space,1,1.1102880999969784,None,008,001,2023-11-12_14h25.07.176,untitled,2023.2.3,59.80786126573501,2023-11-12 14h25.16.772704 +0800,
9,condition_2/leftstar.PNG,space,,,,,,,,,,,,,1,1,26,19,410.71900989999995,,,,,,,,,,,,,,,,,,,,,,,,,,,,,,,,,,,,,,,,,,,,,,,,,,,,,,,,,,,,,,,,,,,,,,,,,,,,,,,,,,,,,,,,,,,,,,,,,,,,,,,,,410.65277369999967,410.71900989999995,411.16884490000666,411.1688581000053,411.65214930000366,412.13577000000805,411.9357345000026,411.93574450000597,413.28908620000584,413.28908620000584,,413.6522174999991,space,1,0.3593255000014324,None,008,001,2023-11-12_14h25.07.176,untitled,2023.2.3,59.80786126573501,2023-11-12 14h25.16.772704 +0800,
2,condition_2/leftstar.PNG,left,,,,,,,,,,,,,1,2,27,22,413.71853890000784,,,,,,,,,,,,,,,,,,,,,,,,,,,,,,,,,,,,,,,,,,,,,,,,,,,,,,,,,,,,,,,,,,,,,,,,,,,,,,,,,,,,,,,,,,,,,,,,,,,,,,,,,413.6526029000088,413.71853890000784,414.15392100000463,414.15393340001174,414.65200830000686,415.11914010001055,414.93586009999854,414.9358723000041,416.25163660000544,416.25163660000544,,416.6200225000066,left,1,0.36673399999563117,None,008,001,2023-11-12_14h25.07.176,untitled,2023.2.3,59.80786126573501,2023-11-12 14h25.16.772704 +0800,
8,condition_2/rightstar.PNG,space,,,,,,,,,,,,,1,3,28,23,416.68575790000614,,,,,,,,,,,,,,,,,,,,,,,,,,,,,,,,,,,,,,,,,,,,,,,,,,,,,,,,,,,,,,,,,,,,,,,,,,,,,,,,,,,,,,,,,,,,,,,,,,,,,,,,,416.62049580000166,416.68575790000614,417.13553220000176,417.1355443000066,417.6352406000078,418.1186358999985,417.9189124000113,417.9189230000047,419.23478110000724,419.23478110000724,420.0352426000027,420.1691344999999,space,1,0.919372000003932,None,008,001,2023-11-12_14h25.07.176,untitled,2023.2.3,59.80786126573501,2023-11-12 14h25.16.772704 +0800,
8,condition_2/rightstar.PNG,space,,,,,,,,,,,,,1,4,29,6,420.2522445000068,,,,,,,,,,,,,,,,,,,,,,,,,,,,,,,,,,,,,,,,,,,,,,,,,,,,,,,,,,,,,,,,,,,,,,,,,,,,,,,,,,,,,,,,,,,,,,,,,,,,,,,,,420.1695696000097,420.2522445000068,420.6854597000056,420.68547260000196,421.16899450001074,421.6519694000017,421.4522459,421.4522560000041,422.76828230000683,422.76828230000683,,423.0365705000004,space,1,0.2662984999915352,None,008,001,2023-11-12_14h25.07.176,untitled,2023.2.3,59.80786126573501,2023-11-12 14h25.16.772704 +0800,
2,condition_2/blank.PNG,space,,,,,,,,,,,,,1,5,30,9,423.1181706000061,,,,,,,,,,,,,,,,,,,,,,,,,,,,,,,,,,,,,,,,,,,,,,,,,,,,,,,,,,,,,,,,,,,,,,,,,,,,,,,,,,,,,,,,,,,,,,,,,,,,,,,,,423.0371021000028,423.1181706000061,423.552465700006,423.5524793000077,424.05213430000003,424.36815720000595,424.33578890000354,424.3357995999977,425.7457418999984,425.7457418999984,,426.3524088999984,space,1,0.5933306999941124,None,008,001,2023-11-12_14h25.07.176,untitled,2023.2.3,59.80786126573501,2023-11-12 14h25.16.772704 +0800,
9,condition_2/rightstar.PNG,space,,,,,,,,,,,,,1,6,31,7,426.4250050999981,,,,,,,,,,,,,,,,,,,,,,,,,,,,,,,,,,,,,,,,,,,,,,,,,,,,,,,,,,,,,,,,,,,,,,,,,,,,,,,,,,,,,,,,,,,,,,,,,,,,,,,,,426.3528770999983,426.4250050999981,426.86903860000893,426.8690526999999,427.3518766000052,427.8187038000033,427.6369624000072,427.63697190000676,429.0022033999994,429.0022033999994,,429.46920040000987,space,1,0.4562873000104446,None,008,001,2023-11-12_14h25.07.176,untitled,2023.2.3,59.80786126573501,2023-11-12 14h25.16.772704 +0800,
9,condition_2/rightstar.PNG,space,,,,,,,,,,,,,1,7,32,15,429.5516048999998,,,,,,,,,,,,,,,,,,,,,,,,,,,,,,,,,,,,,,,,,,,,,,,,,,,,,,,,,,,,,,,,,,,,,,,,,,,,,,,,,,,,,,,,,,,,,,,,,,,,,,,,,429.4695733000117,429.5516048999998,429.98527180000383,429.9852850000025,430.46858490000886,430.9348539000057,430.7530745999975,430.75308790001145,432.0678981000092,432.0678981000092,432.92054630001076,432.85272039999836,space,1,0.7766763999970863,None,008,001,2023-11-12_14h25.07.176,untitled,2023.2.3,59.80786126573501,2023-11-12 14h25.16.772704 +0800,
1,condition_2/rightstar.PNG,right,,,,,,,,,,,,,1,8,33,12,432.92054630001076,,,,,,,,,,,,,,,,,,,,,,,,,,,,,,,,,,,,,,,,,,,,,,,,,,,,,,,,,,,,,,,,,,,,,,,,,,,,,,,,,,,,,,,,,,,,,,,,,,,,,,,,,432.8532806000003,432.92054630001076,433.3689861000021,433.36900580000656,433.8687460000074,434.3522992000071,434.1525570000085,434.152568000005,435.46815290000814,435.46815290000814,,435.93632069999876,right,1,0.4602785000024596,None,008,001,2023-11-12_14h25.07.176,untitled,2023.2.3,59.80786126573501,2023-11-12 14h25.16.772704 +0800,
9,condition_2/leftstar.PNG,space,,,,,,,,,,,,,1,9,34,3,436.00394629999937,,,,,,,,,,,,,,,,,,,,,,,,,,,,,,,,,,,,,,,,,,,,,,,,,,,,,,,,,,,,,,,,,,,,,,,,,,,,,,,,,,,,,,,,,,,,,,,,,,,,,,,,,435.93672640000295,436.00394629999937,436.4517932000017,436.45180450000043,436.9516238000069,437.4187982000003,437.2351153000054,437.23513770000136,438.5514344999974,438.5514344999974,,438.9531854000088,space,1,0.4002423999918392,None,008,001,2023-11-12_14h25.07.176,untitled,2023.2.3,59.80786126573501,2023-11-12 14h25.16.772704 +0800,
8,condition_2/blank.PNG,space,,,,,,,,,,,,,1,10,35,10,439.0221534000011,,,,,,,,,,,,,,,,,,,,,,,,,,,,,,,,,,,,,,,,,,,,,,,,,,,,,,,,,,,,,,,,,,,,,,,,,,,,,,,,,,,,,,,,,,,,,,,,,,,,,,,,,438.9536050000024,439.0221534000011,439.46877479999966,439.4687859000114,439.9685696000088,440.28887530000065,440.2523569000041,440.2523673000105,441.66022180000436,441.66022180000436,442.4687554999982,443.1691259000072,space,1,1.502963400009321,None,008,001,2023-11-12_14h25.07.176,untitled,2023.2.3,59.80786126573501,2023-11-12 14h25.16.772704 +0800,
2,condition_2/rightstar.PNG,right,,,,,,,,,,,,,1,11,36,13,443.2371301000094,,,,,,,,,,,,,,,,,,,,,,,,,,,,,,,,,,,,,,,,,,,,,,,,,,,,,,,,,,,,,,,,,,,,,,,,,,,,,,,,,,,,,,,,,,,,,,,,,,,,,,,,,443.16948969999794,443.2371301000094,443.68548480000754,443.6854965000093,444.1689434,444.6519723000092,444.452357400005,444.45236809999915,445.8189577000012,445.8189577000012,,446.3021148000116,right,1,0.4679826000065077,None,008,001,2023-11-12_14h25.07.176,untitled,2023.2.3,59.80786126573501,2023-11-12 14h25.16.772704 +0800,
1,condition_2/rightstar.PNG,right,,,,,,,,,,,,,1,12,37,21,446.3848461000016,,,,,,,,,,,,,,,,,,,,,,,,,,,,,,,,,,,,,,,,,,,,,,,,,,,,,,,,,,,,,,,,,,,,,,,,,,,,,,,,,,,,,,,,,,,,,,,,,,,,,,,,,446.302595000001,446.3848461000016,446.8026211000106,446.80263320000086,447.30204290000256,447.7687634000031,447.5861416000116,447.58615329999884,448.90154110000003,448.90154110000003,,449.6025074000063,right,1,0.6882676999957766,None,008,001,2023-11-12_14h25.07.176,untitled,2023.2.3,59.80786126573501,2023-11-12 14h25.16.772704 +0800,
8,condition_2/leftstar.PNG,space,,,,,,,,,,,,,1,13,38,18,449.6853906000033,,,,,,,,,,,,,,,,,,,,,,,,,,,,,,,,,,,,,,,,,,,,,,,,,,,,,,,,,,,,,,,,,,,,,,,,,,,,,,,,,,,,,,,,,,,,,,,,,,,,,,,,,449.6029549000086,449.6853906000033,450.1182800000097,450.1182935000106,450.61811970001145,451.06911820000096,450.90193000000727,450.90194290000363,452.21822560000874,452.21822560000874,,452.9194514999981,space,1,0.6990229000075487,None,008,001,2023-11-12_14h25.07.176,untitled,2023.2.3,59.80786126573501,2023-11-12 14h25.16.772704 +0800,
1,condition_2/leftstar.PNG,left,,,,,,,,,,,,,1,14,39,0,452.9834644000075,,,,,,,,,,,,,,,,,,,,,,,,,,,,,,,,,,,,,,,,,,,,,,,,,,,,,,,,,,,,,,,,,,,,,,,,,,,,,,,,,,,,,,,,,,,,,,,,,,,,,,,,,452.91982650000136,452.9834644000075,453.4352574000077,453.43527030000405,453.93535990000237,454.4187011000031,454.2192866999976,454.2192997000093,455.5347562000097,455.5347562000097,456.3348248000111,456.4023671000032,left,1,0.8666640000010375,None,008,001,2023-11-12_14h25.07.176,untitled,2023.2.3,59.80786126573501,2023-11-12 14h25.16.772704 +0800,
1,condition_2/blank.PNG,space,,,,,,,,,,,,,1,15,40,8,456.48491379999905,,,,,,,,,,,,,,,,,,,,,,,,,,,,,,,,,,,,,,,,,,,,,,,,,,,,,,,,,,,,,,,,,,,,,,,,,,,,,,,,,,,,,,,,,,,,,,,,,,,,,,,,,456.40282250000746,456.48491379999905,456.9186480000062,456.91865980000875,457.40181210001174,457.7182126000116,457.68646890000673,457.68647950000013,459.1015606000001,459.1015606000001,459.90218400000595,460.0367316000047,space,1,0.934171700006118,None,008,001,2023-11-12_14h25.07.176,untitled,2023.2.3,59.80786126573501,2023-11-12 14h25.16.772704 +0800,
2,condition_2/blank.PNG,space,,,,,,,,,,,,,1,16,41,20,460.1032400000113,,,,,,,,,,,,,,,,,,,,,,,,,,,,,,,,,,,,,,,,,,,,,,,,,,,,,,,,,,,,,,,,,,,,,,,,,,,,,,,,,,,,,,,,,,,,,,,,,,,,,,,,,460.03719410000485,460.1032400000113,460.55140180001035,460.5514133000106,461.0517861999979,461.3682186000078,461.3357994000107,461.335811500001,462.65158910000173,462.65158910000173,,463.26904050000303,space,1,0.6133556999993743,None,008,001,2023-11-12_14h25.07.176,untitled,2023.2.3,59.80786126573501,2023-11-12 14h25.16.772704 +0800,
1,condition_2/rightstar.PNG,right,,,,,,,,,,,,,1,17,42,4,463.33531900000526,,,,,,,,,,,,,,,,,,,,,,,,,,,,,,,,,,,,,,,,,,,,,,,,,,,,,,,,,,,,,,,,,,,,,,,,,,,,,,,,,,,,,,,,,,,,,,,,,,,,,,,,,463.2694727000053,463.33531900000526,463.7849553999986,463.78496689999884,464.26881390000926,464.7523138000106,464.5525970000017,464.5526077000104,465.918533700009,465.918533700009,,466.46884729999874,right,1,0.545247100002598,None,008,001,2023-11-12_14h25.07.176,untitled,2023.2.3,59.80786126573501,2023-11-12 14h25.16.772704 +0800,
2,condition_2/rightstar.PNG,left,,,,,,,,,,,,,1,18,43,5,466.5403384000092,,,,,,,,,,,,,,,,,,,,,,,,,,,,,,,,,,,,,,,,,,,,,,,,,,,,,,,,,,,,,,,,,,,,,,,,,,,,,,,,,,,,,,,,,,,,,,,,,,,,,,,,,466.4692642000009,466.5403384000092,466.98478860000614,466.9847993000003,467.4682150000008,467.95186410000315,467.7519794000109,467.7519911999989,469.06796960000065,469.06796960000065,,469.58584900001006,right,0,0.5028586000116775,None,008,001,2023-11-12_14h25.07.176,untitled,2023.2.3,59.80786126573501,2023-11-12 14h25.16.772704 +0800,
9,condition_2/leftstar.PNG,space,,,,,,,,,,,,,1,19,44,24,469.66871670000546,,,,,,,,,,,,,,,,,,,,,,,,,,,,,,,,,,,,,,,,,,,,,,,,,,,,,,,,,,,,,,,,,,,,,,,,,,,,,,,,,,,,,,,,,,,,,,,,,,,,,,,,,469.5862320000015,469.66871670000546,470.10176489999867,470.10177850000036,470.5855522000056,471.0687593000039,470.8692685999995,470.86928160001116,472.1847370000032,472.1847370000032,,472.60377159999916,space,1,0.4159961000113981,None,008,001,2023-11-12_14h25.07.176,untitled,2023.2.3,59.80786126573501,2023-11-12 14h25.16.772704 +0800,
2,condition_2/leftstar.PNG,left,,,,,,,,,,,,,1,20,45,17,472.68489980000595,,,,,,,,,,,,,,,,,,,,,,,,,,,,,,,,,,,,,,,,,,,,,,,,,,,,,,,,,,,,,,,,,,,,,,,,,,,,,,,,,,,,,,,,,,,,,,,,,,,,,,,,,472.60420450000674,472.68489980000595,473.11853400000837,473.11854609999864,473.61877529999765,474.1182196000009,473.9022508000053,473.90226339999936,475.2181361000112,475.2181361000112,476.0184014000115,476.43553060000704,left,1,1.206823100001202,None,008,001,2023-11-12_14h25.07.176,untitled,2023.2.3,59.80786126573501,2023-11-12 14h25.16.772704 +0800,
1,condition_2/leftstar.PNG,left,,,,,,,,,,,,,1,21,46,16,476.50349540000025,,,,,,,,,,,,,,,,,,,,,,,,,,,,,,,,,,,,,,,,,,,,,,,,,,,,,,,,,,,,,,,,,,,,,,,,,,,,,,,,,,,,,,,,,,,,,,,,,,,,,,,,,476.4359199000028,476.50349540000025,476.9518977000116,476.95190900001035,477.43498869999894,477.9022688999976,477.7193457000103,477.7193580000021,479.0346346000006,479.0346346000006,,479.3859511000046,left,1,0.343759899988072,None,008,001,2023-11-12_14h25.07.176,untitled,2023.2.3,59.80786126573501,2023-11-12 14h25.16.772704 +0800,
8,condition_2/rightstar.PNG,space,,,,,,,,,,,,,1,22,47,14,479.46876350000093,,,,,,,,,,,,,,,,,,,,,,,,,,,,,,,,,,,,,,,,,,,,,,,,,,,,,,,,,,,,,,,,,,,,,,,,,,,,,,,,,,,,,,,,,,,,,,,,,,,,,,,,,479.38632390000566,479.46876350000093,479.9020765000023,479.90208850000636,480.38537960000394,480.8686738000106,480.6692027000099,480.6692131000018,481.9851655000093,481.9851655000093,,482.30316570001014,space,1,0.30708359999698587,None,008,001,2023-11-12_14h25.07.176,untitled,2023.2.3,59.80786126573501,2023-11-12 14h25.16.772704 +0800,
2,condition_2/leftstar.PNG,left,,,,,,,,,,,,,1,23,48,1,482.37807570000587,,,,,,,,,,,,,,,,,,,,,,,,,,,,,,,,,,,,,,,,,,,,,,,,,,,,,,,,,,,,,,,,,,,,,,,,,,,,,,,,,,,,,,,,,,,,,,,,,,,,,,,,,482.3036628000118,482.37807570000587,482.8186174000002,482.8186294000043,483.3183917999995,483.78585070000554,483.6025839000067,483.6025945000001,484.9181161000015,484.9181161000015,,485.3356902000087,left,1,0.4132116999971913,None,008,001,2023-11-12_14h25.07.176,untitled,2023.2.3,59.80786126573501,2023-11-12 14h25.16.772704 +0800,
8,condition_2/leftstar.PNG,space,,,,,,,,,,,,,1,24,49,2,485.4084423000022,,,,,,,,,,,,,,,,,,,,,,,,,,,,,,,,,,,,,,,,,,,,,,,,,,,,,,,,,,,,,,,,,,,,,,,,,,,,,,,,,,,,,,,,,,,,,,,,,,,,,,,,,485.33604470000137,485.4084423000022,485.852157500005,485.8521715000097,486.33516050000617,486.8018729000032,486.61850540000887,486.6185153000115,487.95145030001004,487.95145030001004,,488.5021041,space,1,0.5416999000008218,None,008,001,2023-11-12_14h25.07.176,untitled,2023.2.3,59.80786126573501,2023-11-12 14h25.16.772704 +0800,
