stimuli,star,CorrectAns,trials_3.thisRepN,trials_3.thisTrialN,trials_3.thisN,trials_3.thisIndex,trials.thisRepN,trials.thisTrialN,trials.thisN,trials.thisIndex,trials_4.thisRepN,trials_4.thisTrialN,trials_4.thisN,trials_4.thisIndex,trials_2.thisRepN,trials_2.thisTrialN,trials_2.thisN,trials_2.thisIndex,thisRow.t,notes,routine_21.started,text_9.started,key_resp_8.started,routine_21.stopped,key_resp_8.keys,key_resp_8.rt,key_resp_8.duration,introduction.started,text_6.started,key_resp_5.started,introduction.stopped,key_resp_5.keys,key_resp_5.rt,key_resp_5.duration,routine_14.started,image_6.started,routine_14.stopped,routine_16.started,text_4.started,text_4.stopped,routine_16.stopped,routine_17.started,image_7.started,key_resp_3.started,image_7.stopped,routine_17.stopped,key_resp_3.keys,key_resp_3.rt,key_resp_3.duration,routine_20.started,text_8.started,key_resp_7.started,routine_20.stopped,key_resp_7.keys,key_resp_7.rt,key_resp_7.duration,routine_18.started,text_5.started,key_resp_4.started,routine_18.stopped,key_resp_4.keys,key_resp_4.rt,key_resp_4.duration,trial.started,image_3.started,trial.stopped,routine.started,text_3.started,text_3.stopped,routine.stopped,routine_1.started,image_2.started,key_resp.started,image_2.stopped,routine_1.stopped,key_resp.keys,key_resp.corr,key_resp.rt,key_resp.duration,routine_22.started,text_10.started,key_resp_9.started,routine_22.stopped,key_resp_9.keys,key_resp_9.rt,key_resp_9.duration,routine_19.started,text_7.started,key_resp_6.started,routine_19.stopped,key_resp_6.keys,key_resp_6.rt,key_resp_6.duration,routine_23.started,image_8.started,routine_23.stopped,routine_24.started,text_11.started,text_11.stopped,routine_24.stopped,routine_25.started,image_9.started,key_resp_10.started,image_9.stopped,routine_25.stopped,key_resp_10.keys,key_resp_10.rt,key_resp_10.duration,routine_26.started,text_12.started,key_resp_11.started,text_12.stopped,routine_26.stopped,key_resp_11.keys,key_resp_11.rt,key_resp_11.duration,routine_27.started,text_13.started,key_resp_12.started,text_13.stopped,routine_27.stopped,key_resp_12.keys,key_resp_12.rt,key_resp_12.duration,routine_10.started,image_4.started,routine_10.stopped,routine_11.started,text.started,text.stopped,routine_11.stopped,routine_12.started,image_5.started,key_resp_2.started,routine_12.stopped,key_resp_2.keys,key_resp_2.corr,key_resp_2.rt,key_resp_2.duration,image_5.stopped,participant,session,date,expName,psychopyVersion,frameRate,expStart,
,,,,,,,,,,,,,,,,,,,,,0.005393423988834911,0.015017756233419277,0.015017756233419277,1.682860960534299,space,1.659624767925152,None,,,,,,,,,,,,,,,,,,,,,,,,,,,,,,,,,,,,,,,,,,,,,,,,,,,,,,,,,,,,,,,,,,,,,,,,,,,,,,,,,,,,,,,,,,,,,,,,,,,,,,,,,,,,,,,,,,009,001,2023-11-09_18h15.06.309,untitled,2023.2.2,60.00604004093853,2023-11-09 18h15.38.013214 +0800,
,,,,,,,,,,,,,,,,,,,,,,,,,,,,1.6829000215436736,1.6981605569740168,1.6981605569740168,29.065748392414207,space,27.353388557588232,None,,,,,,,,,,,,,,,,,,,,,,,,,,,,,,,,,,,,,,,,,,,,,,,,,,,,,,,,,,,,,,,,,,,,,,,,,,,,,,,,,,,,,,,,,,,,,,,,,,,,,,,,,,,009,001,2023-11-09_18h15.06.309,untitled,2023.2.2,60.00604004093853,2023-11-09 18h15.38.013214 +0800,
1,test/leftstar.PNG,space,0,0,0,0,,,,,,,,,,,,,29.209882916126617,,,,,,,,,,,,,,,,29.072318754663,29.209882916126617,29.58174312458641,29.58175544382766,30.064874327211783,30.603328839314145,30.34876884205437,30.348780860826537,31.674328533736798,31.674328533736798,32.48161503452252,37.46588787026462,space,5.776520847912479,None,,,,,,,,,,,,,,,,,,,,,,,,,,,,,,,,,,,,,,,,,,,,,,,,,,,,,,,,,,,,,,,,,,,,,,,,,,,,,,,,,,,,,,,,,,,,009,001,2023-11-09_18h15.06.309,untitled,2023.2.2,60.00604004093853,2023-11-09 18h15.38.013214 +0800,
2,test/leftstar.PNG,space,0,1,1,4,,,,,,,,,,,,,37.57850676972362,,,,,,,,,,,,,,,,37.46653688395895,37.57850676972362,37.98170382320154,37.98171614244279,38.481712386576646,39.01188746703474,38.76570215018842,38.765719577407936,40.084391911726925,40.084391911726925,40.89832449302571,45.066106852292705,space,4.9753245594295095,None,,,,,,,,,,,,,,,,,,,,,,,,,,,,,,,,,,,,,,,,,,,,,,,,,,,,,,,,,,,,,,,,,,,,,,,,,,,,,,,,,,,,,,,,,,,,009,001,2023-11-09_18h15.06.309,untitled,2023.2.2,60.00604004093853,2023-11-09 18h15.38.013214 +0800,
1,test/blank.PNG,space,0,2,2,2,,,,,,,,,,,,,45.179177357113986,,,,,,,,,,,,,,,,45.066736936420966,45.179177357113986,45.58176866447707,45.581782486065094,46.08164051431936,46.46244268923624,46.365533827284935,46.365547047934115,47.681705355594886,47.681705355594886,48.48161172936011,50.3326570770887,space,2.6414926473660216,None,,,,,,,,,,,,,,,,,,,,,,,,,,,,,,,,,,,,,,,,,,,,,,,,,,,,,,,,,,,,,,,,,,,,,,,,,,,,,,,,,,,,,,,,,,,,009,001,2023-11-09_18h15.06.309,untitled,2023.2.2,60.00604004093853,2023-11-09 18h15.38.013214 +0800,
9,test/rightstar.PNG,right,0,3,3,3,,,,,,,,,,,,,50.44870703551874,,,,,,,,,,,,,,,,50.333287762155805,50.44870703551874,50.8483759784408,50.84839010049791,51.34839986575025,51.88271150710284,51.6321399393712,51.63215255908199,52.953956684946206,52.953956684946206,53.76494436660619,53.94940577688294,right,0.9853638397812574,None,,,,,,,,,,,,,,,,,,,,,,,,,,,,,,,,,,,,,,,,,,,,,,,,,,,,,,,,,,,,,,,,,,,,,,,,,,,,,,,,,,,,,,,,,,,,009,001,2023-11-09_18h15.06.309,untitled,2023.2.2,60.00604004093853,2023-11-09 18h15.38.013214 +0800,
8,test/rightstar.PNG,right,0,4,4,1,,,,,,,,,,,,,54.057487890336006,,,,,,,,,,,,,,,,53.95001603003743,54.057487890336006,54.46496843419732,54.464980452969485,54.965142556158526,55.49747861184392,55.24907613201049,55.2490956625154,56.553492399779316,56.553492399779316,57.36487790279648,57.49921051690626,right,0.9298632534155331,None,,,,,,,,,,,,,,,,,,,,,,,,,,,,,,,,,,,,,,,,,,,,,,,,,,,,,,,,,,,,,,,,,,,,,,,,,,,,,,,,,,,,,,,,,,,,009,001,2023-11-09_18h15.06.309,untitled,2023.2.2,60.00604004093853,2023-11-09 18h15.38.013214 +0800,
8,test/leftstar.PNG,left,0,5,5,5,,,,,,,,,,,,,57.606874677558835,,,,,,,,,,,,,,,,57.49968676075173,57.606874677558835,58.01498410367162,58.01501595341756,58.498816000711486,59.03857605193548,58.78340970762224,58.78344636487736,60.10256760033508,60.10256760033508,60.91496989147345,61.53256050625464,left,1.420083728776035,None,,,,,,,,,,,,,,,,,,,,,,,,,,,,,,,,,,,,,,,,,,,,,,,,,,,,,,,,,,,,,,,,,,,,,,,,,,,,,,,,,,,,,,,,,,,,009,001,2023-11-09_18h15.06.309,untitled,2023.2.2,60.00604004093853,2023-11-09 18h15.38.013214 +0800,
,,,,,,,,,,,,,,,,,,,,,,,,,,,,,,,,,,,,,,,,,,,,,,,,,,61.532930984905306,61.548924364965615,61.548924364965615,81.39940993838286,space,19.838379665199,None,,,,,,,,,,,,,,,,,,,,,,,,,,,,,,,,,,,,,,,,,,,,,,,,,,,,,,,,,,,,,,,,,,,,,,,,,,,,,,,,,,,,,009,001,2023-11-09_18h15.06.309,untitled,2023.2.2,60.00604004093853,2023-11-09 18h15.38.013214 +0800,
,,,,,,,,,,,,,,,,,,,,,,,,,,,,,,,,,,,,,,,,,,,,,,,,,,,,,,,,,81.39945020126947,81.41491745958001,81.41491745958001,85.1823617307873,space,3.755649348717725,None,,,,,,,,,,,,,,,,,,,,,,,,,,,,,,,,,,,,,,,,,,,,,,,,,,,,,,,,,,,,,,,,,,,,,,,,,,,,,,009,001,2023-11-09_18h15.06.309,untitled,2023.2.2,60.00604004093853,2023-11-09 18h15.38.013214 +0800,
8,condition_1/leftstar.PNG,left,,,,,0,0,0,2,,,,,,,,,85.33404103869839,,,,,,,,,,,,,,,,,,,,,,,,,,,,,,,,,,,,,,,,,,,,,85.20409918251312,85.33404103869839,85.69845982439983,85.69847394645694,86.18162107395551,86.7197081121003,86.46552129771499,86.46553511930279,87.79611535256913,87.79611535256913,88.5982548141942,88.7159624617691,left,1,0.9186350160314305,None,,,,,,,,,,,,,,,,,,,,,,,,,,,,,,,,,,,,,,,,,,,,,,,,,,,,,,,,,,,,,,009,001,2023-11-09_18h15.06.309,untitled,2023.2.2,60.00604004093853,2023-11-09 18h15.38.013214 +0800,
9,condition_1/rightstar.PNG,right,,,,,0,1,1,15,,,,,,,,,88.8254778137973,,,,,,,,,,,,,,,,,,,,,,,,,,,,,,,,,,,,,,,,,,,,,88.71679506220767,88.8254778137973,89.23153383269323,89.23154645240402,89.73226262098774,90.27439728111335,90.01688036544283,90.01691792410566,91.33527085955552,91.33527085955552,,91.86583504776104,right,1,0.5246975250643118,None,,,,,,,,,,,,,,,,,,,,,,,,,,,,,,,,,,,,,,,,,,,,,,,,,,,,,,,,,,,,,,009,001,2023-11-09_18h15.06.309,untitled,2023.2.2,60.00604004093853,2023-11-09 18h15.38.013214 +0800,
1,condition_1/rightstar.PNG,space,,,,,0,2,2,4,,,,,,,,,91.97568211789985,,,,,,,,,,,,,,,,,,,,,,,,,,,,,,,,,,,,,,,,,,,,,91.86642486900291,91.97568211789985,92.38166392087805,92.38167684105815,92.8816667753365,93.40818694719292,93.16572775017289,93.16574607880057,94.48422551182693,94.48422551182693,95.29840267513828,95.4662355132482,space,1,0.9758158267397903,None,,,,,,,,,,,,,,,,,,,,,,,,,,,,,,,,,,,,,,,,,,,,,,,,,,,,,,,,,,,,,,009,001,2023-11-09_18h15.06.309,untitled,2023.2.2,60.00604004093853,2023-11-09 18h15.38.013214 +0800,
8,condition_1/rightstar.PNG,right,,,,,0,3,3,6,,,,,,,,,95.57648130615212,,,,,,,,,,,,,,,,,,,,,,,,,,,,,,,,,,,,,,,,,,,,,95.46674000120788,95.57648130615212,95.98168609551249,95.98171734432003,96.48178029263909,97.0073374603794,96.76545997193011,96.76547289211021,98.08630770400282,98.08630770400282,,98.69922301642941,right,1,0.6041229796819607,None,,,,,,,,,,,,,,,,,,,,,,,,,,,,,,,,,,,,,,,,,,,,,,,,,,,,,,,,,,,,,,009,001,2023-11-09_18h15.06.309,untitled,2023.2.2,60.00604004093853,2023-11-09 18h15.38.013214 +0800,
1,condition_1/leftstar.PNG,space,,,,,0,4,4,0,,,,,,,,,98.80741480117786,,,,,,,,,,,,,,,,,,,,,,,,,,,,,,,,,,,,,,,,,,,,,98.69978819918833,98.80741480117786,99.21524208661504,99.21525981430386,99.7149964529599,100.24846167228588,99.99916169064454,99.99918242302647,101.31812668206476,101.31812668206476,102.1315538739957,102.68264792779837,space,1,1.357165156257679,None,,,,,,,,,,,,,,,,,,,,,,,,,,,,,,,,,,,,,,,,,,,,,,,,,,,,,,,,,,,,,,009,001,2023-11-09_18h15.06.309,untitled,2023.2.2,60.00604004093853,2023-11-09 18h15.38.013214 +0800,
2,condition_1/rightstar.PNG,space,,,,,0,5,5,21,,,,,,,,,102.7915055525225,,,,,,,,,,,,,,,,,,,,,,,,,,,,,,,,,,,,,,,,,,,,,102.68319538286846,102.7915055525225,103.19851856614855,103.19853148632842,103.69837779628006,104.22505000560386,103.98216233935796,103.9821746585992,105.30123519925769,105.30123519925769,106.11508845666049,106.36665427731577,space,1,1.0620502162328194,None,,,,,,,,,,,,,,,,,,,,,,,,,,,,,,,,,,,,,,,,,,,,,,,,,,,,,,,,,,,,,,009,001,2023-11-09_18h15.06.309,untitled,2023.2.2,60.00604004093853,2023-11-09 18h15.38.013214 +0800,
2,condition_1/leftstar.PNG,space,,,,,0,6,6,1,,,,,,,,,106.4786935714892,,,,,,,,,,,,,,,,,,,,,,,,,,,,,,,,,,,,,,,,,,,,,106.36747606085942,106.4786935714892,106.88166557345926,106.88167999598568,107.38157317914852,107.90781421502243,107.66552718691332,107.6655401070932,108.9861648909432,108.9861648909432,109.79826971747161,109.81581021397324,space,1,0.8172458563028613,None,,,,,,,,,,,,,,,,,,,,,,,,,,,,,,,,,,,,,,,,,,,,,,,,,,,,,,,,,,,,,,009,001,2023-11-09_18h15.06.309,untitled,2023.2.2,60.00604004093853,2023-11-09 18h15.38.013214 +0800,
2,condition_1/leftstar.PNG,space,,,,,0,7,7,17,,,,,,,,,109.9254595753107,,,,,,,,,,,,,,,,,,,,,,,,,,,,,,,,,,,,,,,,,,,,,109.81643128402243,109.9254595753107,110.3318407019924,110.33185482404974,110.83166748143935,111.35651674350174,111.11551872870245,111.11553194935163,112.41985747539093,112.41985747539093,,113.13268604232962,space,1,0.7106919297250442,None,,,,,,,,,,,,,,,,,,,,,,,,,,,,,,,,,,,,,,,,,,,,,,,,,,,,,,,,,,,,,,009,001,2023-11-09_18h15.06.309,untitled,2023.2.2,60.00604004093853,2023-11-09 18h15.38.013214 +0800,
9,condition_1/leftstar.PNG,left,,,,,0,8,8,20,,,,,,,,,113.24216293428708,,,,,,,,,,,,,,,,,,,,,,,,,,,,,,,,,,,,,,,,,,,,,113.13323950678569,113.24216293428708,113.64844039905938,113.64845301876994,114.14836723478402,114.67465243964557,114.43222359002516,114.43223590926664,115.75155996150397,115.75155996150397,116.65630428165764,116.54934291870472,left,1,0.7954068459528116,None,,,,,,,,,,,,,,,,,,,,,,,,,,,,,,,,,,,,,,,,,,,,,,,,,,,,,,,,,,,,,,009,001,2023-11-09_18h15.06.309,untitled,2023.2.2,60.00604004093853,2023-11-09 18h15.38.013214 +0800,
8,condition_1/leftstar.PNG,left,,,,,0,9,9,18,,,,,,,,,116.65630428165764,,,,,,,,,,,,,,,,,,,,,,,,,,,,,,,,,,,,,,,,,,,,,116.54990509677054,116.65630428165764,117.06515646788716,117.06516938806726,117.56509562285328,118.09386630978929,117.84918514227365,117.84922149905947,119.16853473440165,119.16853473440165,,119.69951627446903,left,1,0.5221140899971033,None,,,,,,,,,,,,,,,,,,,,,,,,,,,,,,,,,,,,,,,,,,,,,,,,,,,,,,,,,,,,,,009,001,2023-11-09_18h15.06.309,untitled,2023.2.2,60.00604004093853,2023-11-09 18h15.38.013214 +0800,
1,condition_1/leftstar.PNG,space,,,,,0,10,10,22,,,,,,,,,119.80852503525261,,,,,,,,,,,,,,,,,,,,,,,,,,,,,,,,,,,,,,,,,,,,,119.70020825527399,119.80852503525261,120.21510867824463,120.21512129795519,120.71497692245521,121.24029972413905,120.99896187855802,120.998980507655,122.3199442208786,122.3199442208786,123.1321274698953,123.299558580547,space,1,0.9718922985812242,None,,,,,,,,,,,,,,,,,,,,,,,,,,,,,,,,,,,,,,,,,,,,,,,,,,,,,,,,,,,,,,009,001,2023-11-09_18h15.06.309,untitled,2023.2.2,60.00604004093853,2023-11-09 18h15.38.013214 +0800,
9,condition_1/leftstar.PNG,left,,,,,0,11,11,19,,,,,,,,,123.40855051504946,,,,,,,,,,,,,,,,,,,,,,,,,,,,,,,,,,,,,,,,,,,,,123.30005135020383,123.40855051504946,123.81512844912459,123.81514046789675,124.31496935062864,124.84181192604728,124.59884343355884,124.59885845702411,125.91794634038911,125.91794634038911,,126.41700271654304,left,1,0.49272098090000327,None,,,,,,,,,,,,,,,,,,,,,,,,,,,,,,,,,,,,,,,,,,,,,,,,,,,,,,,,,,,,,,009,001,2023-11-09_18h15.06.309,untitled,2023.2.2,60.00604004093853,2023-11-09 18h15.38.013214 +0800,
8,condition_1/rightstar.PNG,right,,,,,0,12,12,14,,,,,,,,,126.53693744259158,,,,,,,,,,,,,,,,,,,,,,,,,,,,,,,,,,,,,,,,,,,,,126.41816643415359,126.53693744259158,126.93224747733484,126.93227512051067,127.43207215349662,127.95938255961983,127.71646484644361,127.71649879947495,129.03522071122893,129.03522071122893,,129.649159121632,right,1,0.6072851186268053,None,,,,,,,,,,,,,,,,,,,,,,,,,,,,,,,,,,,,,,,,,,,,,,,,,,,,,,,,,,,,,,009,001,2023-11-09_18h15.06.309,untitled,2023.2.2,60.00604004093853,2023-11-09 18h15.38.013214 +0800,
2,condition_1/rightstar.PNG,space,,,,,0,13,13,5,,,,,,,,,129.7562358647972,,,,,,,,,,,,,,,,,,,,,,,,,,,,,,,,,,,,,,,,,,,,,129.64967532789456,129.7562358647972,130.16502104637243,130.16503486796023,130.6484779577222,131.1719303379948,130.93216064170633,130.9321726604785,132.2536874344039,132.2536874344039,,132.86671392047242,space,1,0.5973540072238848,None,,,,,,,,,,,,,,,,,,,,,,,,,,,,,,,,,,,,,,,,,,,,,,,,,,,,,,,,,,,,,,009,001,2023-11-09_18h15.06.309,untitled,2023.2.2,60.00604004093853,2023-11-09 18h15.38.013214 +0800,
2,condition_1/blank.PNG,space,,,,,0,14,14,9,,,,,,,,,132.97907141163773,,,,,,,,,,,,,,,,,,,,,,,,,,,,,,,,,,,,,,,,,,,,,132.8675894880214,132.97907141163773,133.38189077520178,133.3819042963205,133.88160487866003,134.2606460029922,134.1656183793466,134.16563220093462,135.48162675282515,135.48162675282515,,136.16585004117928,space,1,0.6814355341607552,None,,,,,,,,,,,,,,,,,,,,,,,,,,,,,,,,,,,,,,,,,,,,,,,,,,,,,,,,,,,,,,009,001,2023-11-09_18h15.06.309,untitled,2023.2.2,60.00604004093853,2023-11-09 18h15.38.013214 +0800,
1,condition_1/rightstar.PNG,space,,,,,0,15,15,12,,,,,,,,,136.2764909512166,,,,,,,,,,,,,,,,,,,,,,,,,,,,,,,,,,,,,,,,,,,,,136.16636053852517,136.2764909512166,136.68205660421017,136.68207853846934,137.1818939000825,137.71514218057177,137.46624873389737,137.4662724709724,138.76982458902557,138.76982458902557,,139.48243862088202,space,1,0.7047639708462157,None,,,,,,,,,,,,,,,,,,,,,,,,,,,,,,,,,,,,,,,,,,,,,,,,,,,,,,,,,,,,,,009,001,2023-11-09_18h15.06.309,untitled,2023.2.2,60.00604004093853,2023-11-09 18h15.38.013214 +0800,
2,condition_1/rightstar.PNG,space,,,,,0,16,16,13,,,,,,,,,139.59214386950975,,,,,,,,,,,,,,,,,,,,,,,,,,,,,,,,,,,,,,,,,,,,,139.4829554280832,139.59214386950975,139.99845318402822,139.99846580373878,140.49829047990056,141.02466432320648,140.78209245019798,140.78210506990877,142.1014564648524,142.1014564648524,142.91504651114587,143.16612767481524,space,1,1.0615718691024085,None,,,,,,,,,,,,,,,,,,,,,,,,,,,,,,,,,,,,,,,,,,,,,,,,,,,,,,,,,,,,,,009,001,2023-11-09_18h15.06.309,untitled,2023.2.2,60.00604004093853,2023-11-09 18h15.38.013214 +0800,
1,condition_1/blank.PNG,space,,,,,0,17,17,8,,,,,,,,,143.27566856673434,,,,,,,,,,,,,,,,,,,,,,,,,,,,,,,,,,,,,,,,,,,,,143.16668354302578,143.27566856673434,143.6818087170352,143.6818222381537,144.18169378752668,144.5422241999779,144.46548403952124,144.46549786110927,145.78170334245056,145.78170334245056,146.5816301481284,146.93401664059093,space,1,1.1408657181650597,None,,,,,,,,,,,,,,,,,,,,,,,,,,,,,,,,,,,,,,,,,,,,,,,,,,,,,,,,,,,,,,009,001,2023-11-09_18h15.06.309,untitled,2023.2.2,60.00604004093853,2023-11-09 18h15.38.013214 +0800,
8,condition_1/blank.PNG,space,,,,,0,18,18,24,,,,,,,,,147.05487801396998,,,,,,,,,,,,,,,,,,,,,,,,,,,,,,,,,,,,,,,,,,,,,146.93532668675198,147.05487801396998,147.44849129855925,147.44850512014727,147.9485052703817,148.30479846472213,148.23224113743254,148.23225435808195,149.54836759534714,149.54836759534714,150.348308222613,151.53311487211886,space,1,1.9827124986516083,None,,,,,,,,,,,,,,,,,,,,,,,,,,,,,,,,,,,,,,,,,,,,,,,,,,,,,,,,,,,,,,009,001,2023-11-09_18h15.06.309,untitled,2023.2.2,60.00604004093853,2023-11-09 18h15.38.013214 +0800,
1,condition_1/leftstar.PNG,space,,,,,0,19,19,16,,,,,,,,,151.646310071701,,,,,,,,,,,,,,,,,,,,,,,,,,,,,,,,,,,,,,,,,,,,,151.53385252425755,151.646310071701,152.04820038418006,152.04821240295223,152.54889612085117,153.0854708969939,152.8335949920181,152.83363555537403,154.15473988823146,154.15473988823146,154.9651254294081,155.1329714881674,left,0,0.9763103992124798,None,,,,,,,,,,,,,,,,,,,,,,,,,,,,,,,,,,,,,,,,,,,,,,,,,,,,,,,,,,,,,,009,001,2023-11-09_18h15.06.309,untitled,2023.2.2,60.00604004093853,2023-11-09 18h15.38.013214 +0800,
8,condition_1/blank.PNG,space,,,,,0,20,20,10,,,,,,,,,155.24143850279756,,,,,,,,,,,,,,,,,,,,,,,,,,,,,,,,,,,,,,,,,,,,,155.13364453940608,155.24143850279756,155.64843739436628,155.64845241783132,156.1484889248518,156.50595695416678,156.43232605005755,156.43234377774638,157.7484434938931,157.7484434938931,158.54847095678747,158.8492734802487,space,1,1.0867902577035693,None,,,,,,,,,,,,,,,,,,,,,,,,,,,,,,,,,,,,,,,,,,,,,,,,,,,,,,,,,,,,,,009,001,2023-11-09_18h15.06.309,untitled,2023.2.2,60.00604004093853,2023-11-09 18h15.38.013214 +0800,
9,condition_1/blank.PNG,space,,,,,0,21,21,11,,,,,,,,,158.95936663474686,,,,,,,,,,,,,,,,,,,,,,,,,,,,,,,,,,,,,,,,,,,,,158.84976564896715,158.95936663474686,159.3651441185989,159.36516545191944,159.86501566797187,160.2211445056032,160.1488047180892,160.14881673686136,161.46512678151998,161.46512678151998,162.26508784069847,162.64918976950094,space,1,1.1774454520516429,None,,,,,,,,,,,,,,,,,,,,,,,,,,,,,,,,,,,,,,,,,,,,,,,,,,,,,,,,,,,,,,009,001,2023-11-09_18h15.06.309,untitled,2023.2.2,60.00604004093853,2023-11-09 18h15.38.013214 +0800,
9,condition_1/rightstar.PNG,right,,,,,0,22,22,7,,,,,,,,,162.75829558186933,,,,,,,,,,,,,,,,,,,,,,,,,,,,,,,,,,,,,,,,,,,,,162.64969786309234,162.75829558186933,163.16513852986986,163.16515084911134,163.6649986614093,164.20145655499323,163.9489325377308,163.9489460588493,165.27179070990974,165.27179070990974,166.08195991318848,166.11689908468043,right,1,0.8278358968873363,None,,,,,,,,,,,,,,,,,,,,,,,,,,,,,,,,,,,,,,,,,,,,,,,,,,,,,,,,,,,,,,009,001,2023-11-09_18h15.06.309,untitled,2023.2.2,60.00604004093853,2023-11-09 18h15.38.013214 +0800,
9,condition_1/leftstar.PNG,left,,,,,0,23,23,3,,,,,,,,,166.23854077683927,,,,,,,,,,,,,,,,,,,,,,,,,,,,,,,,,,,,,,,,,,,,,166.11805408868122,166.23854077683927,166.63183856866044,166.63185178930962,167.13170891615619,167.65956587594155,167.415753365181,167.41577049193143,168.7353283092864,168.7353283092864,,169.39930026708726,left,1,0.6526622932356076,None,,,,,,,,,,,,,,,,,,,,,,,,,,,,,,,,,,,,,,,,,,,,,,,,,,,,,,,,,,,,,,009,001,2023-11-09_18h15.06.309,untitled,2023.2.2,60.00604004093853,2023-11-09 18h15.38.013214 +0800,
8,condition_1/rightstar.PNG,right,,,,,0,24,24,23,,,,,,,,,169.5070103995431,,,,,,,,,,,,,,,,,,,,,,,,,,,,,,,,,,,,,,,,,,,,,169.39983780667035,169.5070103995431,169.9151676002748,169.9151808209242,170.4151253843379,170.94688574083852,170.6991202559277,170.69914038737102,172.0188120825917,172.0188120825917,,172.53315874063696,right,1,0.5121186781632332,None,,,,,,,,,,,,,,,,,,,,,,,,,,,,,,,,,,,,,,,,,,,,,,,,,,,,,,,,,,,,,,009,001,2023-11-09_18h15.06.309,untitled,2023.2.2,60.00604004093853,2023-11-09 18h15.38.013214 +0800,
9,condition_1/leftstar.PNG,left,,,,,1,0,25,20,,,,,,,,,172.64500363117145,,,,,,,,,,,,,,,,,,,,,,,,,,,,,,,,,,,,,,,,,,,,,172.53397391385602,172.64500363117145,173.0483506188316,173.04836413995008,173.54840815870307,174.0745869974312,173.8324165514116,173.83243518050836,175.15198188049908,175.15198188049908,,175.73311234817652,left,1,0.5794207973433458,None,,,,,,,,,,,,,,,,,,,,,,,,,,,,,,,,,,,,,,,,,,,,,,,,,,,,,,,,,,,,,,009,001,2023-11-09_18h15.06.309,untitled,2023.2.2,60.00604004093853,2023-11-09 18h15.38.013214 +0800,
8,condition_1/leftstar.PNG,left,,,,,1,1,26,2,,,,,,,,,175.8411352691769,,,,,,,,,,,,,,,,,,,,,,,,,,,,,,,,,,,,,,,,,,,,,175.73393984063705,175.8411352691769,176.24850073329526,176.2485148553526,176.74847774739374,177.27666372106592,177.03241823403982,177.03243566125934,178.35193188240714,178.35193188240714,,178.89943803226265,left,1,0.5311356808197161,None,,,,,,,,,,,,,,,,,,,,,,,,,,,,,,,,,,,,,,,,,,,,,,,,,,,,,,,,,,,,,,009,001,2023-11-09_18h15.06.309,untitled,2023.2.2,60.00604004093853,2023-11-09 18h15.38.013214 +0800,
1,condition_1/leftstar.PNG,space,,,,,1,2,27,22,,,,,,,,,179.00659620260876,,,,,,,,,,,,,,,,,,,,,,,,,,,,,,,,,,,,,,,,,,,,,178.90013572198427,179.00659620260876,179.41512688668422,179.41514040780294,179.91517421059962,180.43761851636077,180.19917599298356,180.19919612442663,181.51907484299727,181.51907484299727,,181.88321359130828,space,1,0.3554269413396014,None,,,,,,,,,,,,,,,,,,,,,,,,,,,,,,,,,,,,,,,,,,,,,,,,,,,,,,,,,,,,,,009,001,2023-11-09_18h15.06.309,untitled,2023.2.2,60.00604004093853,2023-11-09 18h15.38.013214 +0800,
2,condition_1/leftstar.PNG,space,,,,,1,3,28,17,,,,,,,,,181.9968195324277,,,,,,,,,,,,,,,,,,,,,,,,,,,,,,,,,,,,,,,,,,,,,181.88401193824643,181.9968195324277,182.3983558920679,182.3983694131864,182.89846691547518,183.42598434494835,183.18223823790368,183.1822517590224,184.50253280598963,184.50253280598963,,184.79899414896136,space,1,0.2845107773832751,None,,,,,,,,,,,,,,,,,,,,,,,,,,,,,,,,,,,,,,,,,,,,,,,,,,,,,,,,,,,,,,009,001,2023-11-09_18h15.06.309,untitled,2023.2.2,60.00604004093853,2023-11-09 18h15.38.013214 +0800,
2,condition_1/rightstar.PNG,space,,,,,1,4,29,5,,,,,,,,,184.90281560769768,,,,,,,,,,,,,,,,,,,,,,,,,,,,,,,,,,,,,,,,,,,,,184.79949983879828,184.90281560769768,185.31515534112737,185.31516735989953,185.81499984826291,186.33768843556754,186.0989965226688,186.09900944284868,187.4036681893449,187.4036681893449,,187.89920006057469,space,1,0.4790898905000631,None,,,,,,,,,,,,,,,,,,,,,,,,,,,,,,,,,,,,,,,,,,,,,,,,,,,,,,,,,,,,,,009,001,2023-11-09_18h15.06.309,untitled,2023.2.2,60.00604004093853,2023-11-09 18h15.38.013214 +0800,
8,condition_1/rightstar.PNG,right,,,,,1,5,30,14,,,,,,,,,188.00814842702812,,,,,,,,,,,,,,,,,,,,,,,,,,,,,,,,,,,,,,,,,,,,,187.89973068936365,188.00814842702812,188.41514431390397,188.41515813549177,188.91501766609258,189.43810016865336,189.19888994620692,189.19890406826426,190.5181764397812,190.5181764397812,,191.015983164104,right,1,0.48573837476760673,None,,,,,,,,,,,,,,,,,,,,,,,,,,,,,,,,,,,,,,,,,,,,,,,,,,,,,,,,,,,,,,009,001,2023-11-09_18h15.06.309,untitled,2023.2.2,60.00604004093853,2023-11-09 18h15.38.013214 +0800,
9,condition_1/rightstar.PNG,right,,,,,1,6,31,15,,,,,,,,,191.12359023558906,,,,,,,,,,,,,,,,,,,,,,,,,,,,,,,,,,,,,,,,,,,,,191.0165378304373,191.12359023558906,191.53188625313874,191.53190217801193,192.0317073236688,192.54947332238225,192.3158503266252,192.31586865525264,193.6351806887178,193.6351806887178,,194.31622471137666,right,1,0.6720527792358553,None,,,,,,,,,,,,,,,,,,,,,,,,,,,,,,,,,,,,,,,,,,,,,,,,,,,,,,,,,,,,,,009,001,2023-11-09_18h15.06.309,untitled,2023.2.2,60.00604004093853,2023-11-09 18h15.38.013214 +0800,
8,condition_1/leftstar.PNG,left,,,,,1,7,32,18,,,,,,,,,194.41900534444744,,,,,,,,,,,,,,,,,,,,,,,,,,,,,,,,,,,,,,,,,,,,,194.316916091243,194.41900534444744,194.8317290776463,194.83174680533534,195.3318205705491,195.8520450090998,195.61569735770308,195.61571568633053,196.93554843309767,196.93554843309767,,197.31634459862858,left,1,0.364131236578487,None,,,,,,,,,,,,,,,,,,,,,,,,,,,,,,,,,,,,,,,,,,,,,,,,,,,,,,,,,,,,,,009,001,2023-11-09_18h15.06.309,untitled,2023.2.2,60.00604004093853,2023-11-09 18h15.38.013214 +0800,
9,condition_1/blank.PNG,space,,,,,1,8,33,11,,,,,,,,,197.42428158540815,,,,,,,,,,,,,,,,,,,,,,,,,,,,,,,,,,,,,,,,,,,,,197.31715376246166,197.42428158540815,197.8318618850783,197.8318751057277,198.33179743441292,198.72594765764643,198.61580492571352,198.61582325434097,199.93154047306484,199.93154047306484,200.73175122223392,200.9498558798989,space,1,1.015319427413715,None,,,,,,,,,,,,,,,,,,,,,,,,,,,,,,,,,,,,,,,,,,,,,,,,,,,,,,,,,,,,,,009,001,2023-11-09_18h15.06.309,untitled,2023.2.2,60.00604004093853,2023-11-09 18h15.38.013214 +0800,
1,condition_1/rightstar.PNG,space,,,,,1,9,34,4,,,,,,,,,201.06259947411854,,,,,,,,,,,,,,,,,,,,,,,,,,,,,,,,,,,,,,,,,,,,,200.9506190719285,201.06259947411854,201.46510394585312,201.46513249043687,201.96509297872353,202.4900681374238,202.24886790678352,202.2488805264943,203.56807567740043,203.56807567740043,,204.3162887113383,space,1,0.7465255983320276,None,,,,,,,,,,,,,,,,,,,,,,,,,,,,,,,,,,,,,,,,,,,,,,,,,,,,,,,,,,,,,,009,001,2023-11-09_18h15.06.309,untitled,2023.2.2,60.00604004093853,2023-11-09 18h15.38.013214 +0800,
8,condition_1/blank.PNG,space,,,,,1,10,35,24,,,,,,,,,204.42773037206803,,,,,,,,,,,,,,,,,,,,,,,,,,,,,,,,,,,,,,,,,,,,,204.31688844806695,204.42773037206803,204.83172186638308,204.83173628890972,205.33183980058448,205.71157591041447,205.6155982028331,205.61561082254366,206.93169010677775,206.93169010677775,207.73172868703637,207.79921649624544,space,1,0.8548781341576159,None,,,,,,,,,,,,,,,,,,,,,,,,,,,,,,,,,,,,,,,,,,,,,,,,,,,,,,,,,,,,,,009,001,2023-11-09_18h15.06.309,untitled,2023.2.2,60.00604004093853,2023-11-09 18h15.38.013214 +0800,
1,condition_1/leftstar.PNG,space,,,,,1,11,36,16,,,,,,,,,207.90392223614072,,,,,,,,,,,,,,,,,,,,,,,,,,,,,,,,,,,,,,,,,,,,,207.7997462236267,207.90392223614072,208.3152058199703,208.31521843968085,208.81519395143278,209.3412889592255,209.09905691699873,209.09907043811722,210.4178479366924,210.4178479366924,,210.53288591450996,space,1,0.11382107714030099,None,,,,,,,,,,,,,,,,,,,,,,,,,,,,,,,,,,,,,,,,,,,,,,,,,,,,,,,,,,,,,,009,001,2023-11-09_18h15.06.309,untitled,2023.2.2,60.00604004093853,2023-11-09 18h15.38.013214 +0800,
9,condition_1/leftstar.PNG,left,,,,,1,12,37,3,,,,,,,,,210.643926148251,,,,,,,,,,,,,,,,,,,,,,,,,,,,,,,,,,,,,,,,,,,,,210.53339761373286,210.643926148251,211.04851888164126,211.04853180182135,211.5484216798218,212.07379586175648,211.83223987546148,211.83225249517227,213.152650124229,213.152650124229,,213.63264683108537,left,1,0.473874043869273,None,,,,,,,,,,,,,,,,,,,,,,,,,,,,,,,,,,,,,,,,,,,,,,,,,,,,,,,,,,,,,,009,001,2023-11-09_18h15.06.309,untitled,2023.2.2,60.00604004093853,2023-11-09 18h15.38.013214 +0800,
2,condition_1/blank.PNG,space,,,,,1,13,38,9,,,,,,,,,213.73700012048812,,,,,,,,,,,,,,,,,,,,,,,,,,,,,,,,,,,,,,,,,,,,,213.6331855725457,213.73700012048812,214.1492503140655,214.14930229525498,214.63235086882196,215.0286990250072,214.91684932696376,214.9168904912583,216.24858065812987,216.24858065812987,,216.74944075150984,space,1,0.49063482252927315,None,,,,,,,,,,,,,,,,,,,,,,,,,,,,,,,,,,,,,,,,,,,,,,,,,,,,,,,,,,,,,,009,001,2023-11-09_18h15.06.309,untitled,2023.2.2,60.00604004093853,2023-11-09 18h15.38.013214 +0800,
8,condition_1/rightstar.PNG,right,,,,,1,14,39,6,,,,,,,,,216.85451456630108,,,,,,,,,,,,,,,,,,,,,,,,,,,,,,,,,,,,,,,,,,,,,216.75017179332394,216.85451456630108,217.26554635685488,217.26557249768416,217.76554440380437,218.30471944129545,218.04984665549114,218.04987640195213,219.36804154408765,219.36804154408765,,219.93255666024766,right,1,0.5625178967029569,None,,,,,,,,,,,,,,,,,,,,,,,,,,,,,,,,,,,,,,,,,,,,,,,,,,,,,,,,,,,,,,009,001,2023-11-09_18h15.06.309,untitled,2023.2.2,60.00604004093853,2023-11-09 18h15.38.013214 +0800,
9,condition_1/rightstar.PNG,right,,,,,1,15,40,7,,,,,,,,,220.0416339280323,,,,,,,,,,,,,,,,,,,,,,,,,,,,,,,,,,,,,,,,,,,,,219.93314437820436,220.0416339280323,220.44835638784207,220.44836990896079,220.93254734569928,221.47028493804464,221.21696317478268,221.21699983203757,222.5522304287067,222.5522304287067,,223.0330849754232,right,1,0.46652035814759074,None,,,,,,,,,,,,,,,,,,,,,,,,,,,,,,,,,,,,,,,,,,,,,,,,,,,,,,,,,,,,,,009,001,2023-11-09_18h15.06.309,untitled,2023.2.2,60.00604004093853,2023-11-09 18h15.38.013214 +0800,
9,condition_1/leftstar.PNG,left,,,,,1,16,41,19,,,,,,,,,223.14243206464175,,,,,,,,,,,,,,,,,,,,,,,,,,,,,,,,,,,,,,,,,,,,,223.0338926369095,223.14243206464175,223.5487915575336,223.54881289085415,224.04862224308158,224.57949140762958,224.33273249488366,224.3327568328973,225.65195799318963,225.65195799318963,,226.04903689071966,left,1,0.3908312393127744,None,,,,,,,,,,,,,,,,,,,,,,,,,,,,,,,,,,,,,,,,,,,,,,,,,,,,,,,,,,,,,,009,001,2023-11-09_18h15.06.309,untitled,2023.2.2,60.00604004093853,2023-11-09 18h15.38.013214 +0800,
2,condition_1/rightstar.PNG,space,,,,,1,17,42,13,,,,,,,,,226.15250169239334,,,,,,,,,,,,,,,,,,,,,,,,,,,,,,,,,,,,,,,,,,,,,226.04951133174904,226.15250169239334,226.56525517205318,226.5652689936412,227.04841251550806,227.57438433088646,227.33260659824577,227.33263814752263,228.6522728850191,228.6522728850191,,229.3828513755634,space,1,0.7190053144004196,None,,,,,,,,,,,,,,,,,,,,,,,,,,,,,,,,,,,,,,,,,,,,,,,,,,,,,,,,,,,,,,009,001,2023-11-09_18h15.06.309,untitled,2023.2.2,60.00604004093853,2023-11-09 18h15.38.013214 +0800,
2,condition_1/rightstar.PNG,space,,,,,1,18,43,21,,,,,,,,,229.49100830587304,,,,,,,,,,,,,,,,,,,,,,,,,,,,,,,,,,,,,,,,,,,,,229.3833717883963,229.49100830587304,229.89839300002677,229.89840592020687,230.39841027701164,230.92010911843204,230.68223538344546,230.68224800315625,232.00153569860777,232.00153569860777,232.81495357599033,232.81578317173603,space,1,0.8020478184876083,None,,,,,,,,,,,,,,,,,,,,,,,,,,,,,,,,,,,,,,,,,,,,,,,,,,,,,,,,,,,,,,009,001,2023-11-09_18h15.06.309,untitled,2023.2.2,60.00604004093853,2023-11-09 18h15.38.013214 +0800,
8,condition_1/blank.PNG,space,,,,,1,19,44,10,,,,,,,,,232.92579039201337,,,,,,,,,,,,,,,,,,,,,,,,,,,,,,,,,,,,,,,,,,,,,232.8162768428008,232.92579039201337,233.33188186628695,233.33189418552843,233.81505964165422,234.1911997348659,234.09892441003603,234.09893733021613,235.41505507452098,235.41505507452098,236.2149452229437,236.3994580134713,space,1,0.9813435605071845,None,,,,,,,,,,,,,,,,,,,,,,,,,,,,,,,,,,,,,,,,,,,,,,,,,,,,,,,,,,,,,,009,001,2023-11-09_18h15.06.309,untitled,2023.2.2,60.00604004093853,2023-11-09 18h15.38.013214 +0800,
2,condition_1/leftstar.PNG,space,,,,,1,20,45,1,,,,,,,,,236.503833237133,,,,,,,,,,,,,,,,,,,,,,,,,,,,,,,,,,,,,,,,,,,,,236.39994417280354,236.503833237133,236.91544583484938,236.91546686770062,237.4152419664274,237.9460044643729,237.6993519177604,237.69937445295818,239.0182138482096,239.0182138482096,,239.6660439941145,left,0,0.6322733477418296,None,,,,,,,,,,,,,,,,,,,,,,,,,,,,,,,,,,,,,,,,,,,,,,,,,,,,,,,,,,,,,,009,001,2023-11-09_18h15.06.309,untitled,2023.2.2,60.00604004093853,2023-11-09 18h15.38.013214 +0800,
1,condition_1/rightstar.PNG,space,,,,,1,21,46,12,,,,,,,,,239.77074642884713,,,,,,,,,,,,,,,,,,,,,,,,,,,,,,,,,,,,,,,,,,,,,239.66658543979838,239.77074642884713,240.18175898936556,240.1817812240938,240.68197878266074,241.2195571262755,240.96608032085305,240.9661076635598,242.28606450414895,242.28606450414895,243.09856354640306,243.16657807830052,space,1,0.8684545391445226,None,,,,,,,,,,,,,,,,,,,,,,,,,,,,,,,,,,,,,,,,,,,,,,,,,,,,,,,,,,,,,,009,001,2023-11-09_18h15.06.309,untitled,2023.2.2,60.00604004093853,2023-11-09 18h15.38.013214 +0800,
1,condition_1/blank.PNG,space,,,,,1,22,47,8,,,,,,,,,243.28222901349613,,,,,,,,,,,,,,,,,,,,,,,,,,,,,,,,,,,,,,,,,,,,,243.1675570072896,243.28222901349613,243.6819676652965,243.68198389063878,244.18187166535404,244.5412635996163,244.46581695950908,244.4658313820355,245.78165015938384,245.78165015938384,,245.79967801709495,space,1,0.005369085975189591,None,,,,,,,,,,,,,,,,,,,,,,,,,,,,,,,,,,,,,,,,,,,,,,,,,,,,,,,,,,,,,,009,001,2023-11-09_18h15.06.309,untitled,2023.2.2,60.00604004093853,2023-11-09 18h15.38.013214 +0800,
8,condition_1/rightstar.PNG,right,,,,,1,23,48,23,,,,,,,,,245.90398263047064,,,,,,,,,,,,,,,,,,,,,,,,,,,,,,,,,,,,,,,,,,,,,245.8001614722034,245.90398263047064,246.3152127307642,246.31522505000567,246.8150584397772,247.34113511894225,247.09886161195163,247.09887453213173,248.41821931675076,248.41821931675076,,248.91605789081973,right,1,0.48830498355368945,None,,,,,,,,,,,,,,,,,,,,,,,,,,,,,,,,,,,,,,,,,,,,,,,,,,,,,,,,,,,,,,009,001,2023-11-09_18h15.06.309,untitled,2023.2.2,60.00604004093853,2023-11-09 18h15.38.013214 +0800,
1,condition_1/leftstar.PNG,space,,,,,1,24,49,0,,,,,,,,,249.02424186336634,,,,,,,,,,,,,,,,,,,,,,,,,,,,,,,,,,,,,,,,,,,,,248.91661766513107,249.02424186336634,249.43176897996977,249.43182186256718,249.93188210666244,250.4588481749645,250.21588719420856,250.2159082270598,251.52090259776742,251.52090259776742,,251.98262025457552,space,1,0.45008018023349905,None,,,,,,,,,,,,,,,,,,,,,,,,,,,,,,,,,,,,,,,,,,,,,,,,,,,,,,,,,,,,,,009,001,2023-11-09_18h15.06.309,untitled,2023.2.2,60.00604004093853,2023-11-09 18h15.38.013214 +0800,
,,,,,,,,,,,,,,,,,,,,,,,,,,,,,,,,,,,,,,,,,,,,,,,,,,,,,,,,,,,,,,,,,,,,,,,,,,,,,,,,251.9830673528984,251.9983894845359,251.9983894845359,257.11668785476036,space,5.1165622585917845,None,,,,,,,,,,,,,,,,,,,,,,,,,,,,,,,,,,,,,,,,,,,,,,,,,,,,,,,009,001,2023-11-09_18h15.06.309,untitled,2023.2.2,60.00604004093853,2023-11-09 18h15.38.013214 +0800,
,,,,,,,,,,,,,,,,,,,,,,,,,,,,,,,,,,,,,,,,,,,,,,,,,,,,,,,,,,,,,,,,,,,,,,,,,,,,,,,,,,,,,,,257.11672992046283,257.13188078459757,257.13188078459757,268.81612480533363,space,11.67166156820349,None,,,,,,,,,,,,,,,,,,,,,,,,,,,,,,,,,,,,,,,,,,,,,,,,009,001,2023-11-09_18h15.06.309,untitled,2023.2.2,60.00604004093853,2023-11-09 18h15.38.013214 +0800,
1,test2/blank.PNG,space,,,,,,,,,0,0,0,2,,,,,268.9560524583346,,,,,,,,,,,,,,,,,,,,,,,,,,,,,,,,,,,,,,,,,,,,,,,,,,,,,,,,,,,,,,,,,,,,,,,,,,,268.8229259280072,268.9560524583346,269.3319678005075,269.33198192256464,269.83188682403056,270.22462934857936,270.11572875674506,270.1157440806794,271.41525278332233,271.41525278332233,272.21504287546736,274.1163615450971,space,2.6993026407944853,None,,,,,,,,,,,,,,,,,,,,,,,,,,,,,,,,,009,001,2023-11-09_18h15.06.309,untitled,2023.2.2,60.00604004093853,2023-11-09 18h15.38.013214 +0800,
9,test2/rightstar.PNG,space,,,,,,,,,0,1,1,3,,,,,274.2219768055727,,,,,,,,,,,,,,,,,,,,,,,,,,,,,,,,,,,,,,,,,,,,,,,,,,,,,,,,,,,,,,,,,,,,,,,,,,,274.11708537564823,274.2219768055727,274.63187222122247,274.6318863432796,275.1317506813891,275.6727850229274,275.4158927829378,275.41590780640286,276.74048015595577,276.74048015595577,277.5488528532717,279.0492273882576,space,2.295003465913396,None,,,,,,,,,,,,,,,,,,,,,,,,,,,,,,,,,009,001,2023-11-09_18h15.06.309,untitled,2023.2.2,60.00604004093853,2023-11-09 18h15.38.013214 +0800,
1,test2/leftstar.PNG,left,,,,,,,,,0,2,2,0,,,,,279.157398140155,,,,,,,,,,,,,,,,,,,,,,,,,,,,,,,,,,,,,,,,,,,,,,,,,,,,,,,,,,,,,,,,,,,,,,,,,,,279.04969341614674,279.157398140155,279.565212204943,279.5652257260615,280.06525922838887,280.590739776457,280.3490281470629,280.34904226912,281.66833326973415,281.66833326973415,,282.18263245362937,left,0.5036102889102949,None,,,,,,,,,,,,,,,,,,,,,,,,,,,,,,,,,009,001,2023-11-09_18h15.06.309,untitled,2023.2.2,60.00604004093853,2023-11-09 18h15.38.013214 +0800,
8,test2/rightstar.PNG,space,,,,,,,,,0,3,3,1,,,,,282.290305628361,,,,,,,,,,,,,,,,,,,,,,,,,,,,,,,,,,,,,,,,,,,,,,,,,,,,,,,,,,,,,,,,,,,,,,,,,,,282.18315286646225,282.290305628361,282.6986316928412,282.6986488195914,283.19852157084165,283.72390266357,283.4822403111418,283.48225293085284,284.8020568325667,284.8020568325667,,285.1328110375596,space,0.3140763558603794,None,,,,,,,,,,,,,,,,,,,,,,,,,,,,,,,,,009,001,2023-11-09_18h15.06.309,untitled,2023.2.2,60.00604004093853,2023-11-09 18h15.38.013214 +0800,
8,test2/rightstar.PNG,space,,,,,,,,,0,4,4,5,,,,,285.23570494755745,,,,,,,,,,,,,,,,,,,,,,,,,,,,,,,,,,,,,,,,,,,,,,,,,,,,,,,,,,,,,,,,,,,,,,,,,,,285.13325092461923,285.23570494755745,285.6484425023443,285.6484578262787,286.14839818312225,286.67586964079214,286.4324071767694,286.4324209983572,287.7516236609961,287.7516236609961,,288.217541578191,space,0.46023484079796617,None,,,,,,,,,,,,,,,,,,,,,,,,,,,,,,,,,009,001,2023-11-09_18h15.06.309,untitled,2023.2.2,60.00604004093853,2023-11-09 18h15.38.013214 +0800,
2,test2/leftstar.PNG,left,,,,,,,,,0,5,5,4,,,,,288.32871401842544,,,,,,,,,,,,,,,,,,,,,,,,,,,,,,,,,,,,,,,,,,,,,,,,,,,,,,,,,,,,,,,,,,,,,,,,,,,288.2186671361999,288.32871401842544,288.7319203864515,288.73193450850863,289.231857738602,289.7550300814844,289.51553892023935,289.5155533427662,290.83651465223534,290.83651465223534,,291.3499478835995,left,0.502480223861312,None,,,,,,,,,,,,,,,,,,,,,,,,,,,,,,,,,009,001,2023-11-09_18h15.06.309,untitled,2023.2.2,60.00604004093853,2023-11-09 18h15.38.013214 +0800,
,,,,,,,,,,,,,,,,,,,,,,,,,,,,,,,,,,,,,,,,,,,,,,,,,,,,,,,,,,,,,,,,,,,,,,,,,,,,,,,,,,,,,,,,,,,,,,,,,,,,,,,,,,,,,291.3505028504021,291.3650608886021,291.3650608886021,292.3651251890326,295.5163468821954,space,4.149383722436141,None,,,,,,,,,,,,,,,,,,,,,,,,,009,001,2023-11-09_18h15.06.309,untitled,2023.2.2,60.00604004093853,2023-11-09 18h15.38.013214 +0800,
,,,,,,,,,,,,,,,,,,,,,,,,,,,,,,,,,,,,,,,,,,,,,,,,,,,,,,,,,,,,,,,,,,,,,,,,,,,,,,,,,,,,,,,,,,,,,,,,,,,,,,,,,,,,,,,,,,,,,295.51638774602065,295.531871530143,295.531871530143,296.531759755562,298.99936360601646,space,3.4549333604154526,None,,,,,,,,,,,,,,,,,009,001,2023-11-09_18h15.06.309,untitled,2023.2.2,60.00604004093853,2023-11-09 18h15.38.013214 +0800,
8,condition_2/rightstar.PNG,space,,,,,,,,,,,,,0,0,0,23,299.16327952629194,,,,,,,,,,,,,,,,,,,,,,,,,,,,,,,,,,,,,,,,,,,,,,,,,,,,,,,,,,,,,,,,,,,,,,,,,,,,,,,,,,,,,,,,,,,,,,,,,,,,,,,,,,299.03350443057,299.16327952629194,299.51546861042266,299.5154929484363,299.9985953060084,300.5318027226724,300.28214157692923,300.2821572013329,301.6072863205038,301.6072863205038,302.38255571376953,space,1,0.7645321227223576,None,,009,001,2023-11-09_18h15.06.309,untitled,2023.2.2,60.00604004093853,2023-11-09 18h15.38.013214 +0800,
2,condition_2/leftstar.PNG,left,,,,,,,,,,,,,0,1,1,22,302.4883022793299,,,,,,,,,,,,,,,,,,,,,,,,,,,,,,,,,,,,,,,,,,,,,,,,,,,,,,,,,,,,,,,,,,,,,,,,,,,,,,,,,,,,,,,,,,,,,,,,,,,,,,,,,,302.3832756382192,302.4883022793299,302.8985291126212,302.89854473702485,303.3984210939068,303.9235594074387,303.68235286694267,303.6823687918161,305.00308912490414,305.00308912490414,305.41603821008016,left,1,0.4005697498923837,None,,009,001,2023-11-09_18h15.06.309,untitled,2023.2.2,60.00604004093853,2023-11-09 18h15.38.013214 +0800,
9,condition_2/rightstar.PNG,space,,,,,,,,,,,,,0,2,2,15,305.5233556291571,,,,,,,,,,,,,,,,,,,,,,,,,,,,,,,,,,,,,,,,,,,,,,,,,,,,,,,,,,,,,,,,,,,,,,,,,,,,,,,,,,,,,,,,,,,,,,,,,,,,,,,,,,305.4165901721901,305.5233556291571,305.9319578249267,305.93197344933037,306.43191651039774,306.9554364962635,306.7158636073684,306.7158837388117,308.03547400685125,308.03547400685125,308.69937986140553,space,1,0.6472355171545132,None,,009,001,2023-11-09_18h15.06.309,untitled,2023.2.2,60.00604004093853,2023-11-09 18h15.38.013214 +0800,
9,condition_2/rightstar.PNG,space,,,,,,,,,,,,,0,3,3,7,308.8091962836754,,,,,,,,,,,,,,,,,,,,,,,,,,,,,,,,,,,,,,,,,,,,,,,,,,,,,,,,,,,,,,,,,,,,,,,,,,,,,,,,,,,,,,,,,,,,,,,,,,,,,,,,,,308.69988464983476,308.8091962836754,309.215336133507,309.2153544621344,309.71514788948866,310.23661777329994,309.9989633809048,309.9989781039005,311.3183604471826,311.3183604471826,311.6162327940008,space,1,0.2930783590891224,None,,009,001,2023-11-09_18h15.06.309,untitled,2023.2.2,60.00604004093853,2023-11-09 18h15.38.013214 +0800,
1,condition_2/leftstar.PNG,left,,,,,,,,,,,,,0,4,4,16,311.7202985342808,,,,,,,,,,,,,,,,,,,,,,,,,,,,,,,,,,,,,,,,,,,,,,,,,,,,,,,,,,,,,,,,,,,,,,,,,,,,,,,,,,,,,,,,,,,,,,,,,,,,,,,,,,311.61685236170365,311.7202985342808,312.13195349816874,312.1319754324279,312.63178027761546,313.15403979475536,312.9156495530367,312.9156648769715,314.2355673326167,314.2355673326167,314.7489729208048,left,1,0.5030802610599494,None,,009,001,2023-11-09_18h15.06.309,untitled,2023.2.2,60.00604004093853,2023-11-09 18h15.38.013214 +0800,
2,condition_2/blank.PNG,space,,,,,,,,,,,,,0,5,5,9,314.8551912231717,,,,,,,,,,,,,,,,,,,,,,,,,,,,,,,,,,,,,,,,,,,,,,,,,,,,,,,,,,,,,,,,,,,,,,,,,,,,,,,,,,,,,,,,,,,,,,,,,,,,,,,,,,314.749478610642,314.8551912231717,315.26506500503115,315.26508333365905,315.74857149381637,316.1377384336595,316.0325116799929,316.03253241237485,317.34837853242993,317.34837853242993,318.43281731736784,space,1,1.078057117411845,None,318.14842342254383,009,001,2023-11-09_18h15.06.309,untitled,2023.2.2,60.00604004093853,2023-11-09 18h15.38.013214 +0800,
2,condition_2/rightstar.PNG,left,,,,,,,,,,,,,0,6,6,5,318.5437352601027,,,,,,,,,,,,,,,,,,,,,,,,,,,,,,,,,,,,,,,,,,,,,,,,,,,,,,,,,,,,,,,,,,,,,,,,,,,,,,,,,,,,,,,,,,,,,,,,,,,,,,,,,,318.4334561151061,318.5437352601027,318.94859300741814,318.94860863182225,319.4486496458819,319.9781207267631,319.7324305833283,319.73244530632405,321.0515358939126,321.0515358939126,322.33278567795037,right,0,1.26451905230806,None,321.86506494493756,009,001,2023-11-09_18h15.06.309,untitled,2023.2.2,60.00604004093853,2023-11-09 18h15.38.013214 +0800,
2,condition_2/leftstar.PNG,left,,,,,,,,,,,,,0,7,7,1,322.4428202409342,,,,,,,,,,,,,,,,,,,,,,,,,,,,,,,,,,,,,,,,,,,,,,,,,,,,,,,,,,,,,,,,,,,,,,,,,,,,,,,,,,,,,,,,,,,,,,,,,,,,,,,,,,322.33341936771035,322.4428202409342,322.84863378110254,322.84865000644527,323.3485963726746,323.8762252762592,323.63247376076674,323.632494793618,324.9521268268911,324.9521268268911,325.49926580325814,left,1,0.5382940614945255,None,,009,001,2023-11-09_18h15.06.309,untitled,2023.2.2,60.00604004093853,2023-11-09 18h15.38.013214 +0800,
9,condition_2/leftstar.PNG,space,,,,,,,,,,,,,0,8,8,24,325.6032311867905,,,,,,,,,,,,,,,,,,,,,,,,,,,,,,,,,,,,,,,,,,,,,,,,,,,,,,,,,,,,,,,,,,,,,,,,,,,,,,,,,,,,,,,,,,,,,,,,,,,,,,,,,,325.49982317381523,325.6032311867905,326.0151956340608,326.0152136622189,326.5152775119461,327.037999451343,326.7991753319509,326.799198167618,328.11849037010893,328.11849037010893,328.3328776215569,space,1,0.20459886296384866,None,,009,001,2023-11-09_18h15.06.309,untitled,2023.2.2,60.00604004093853,2023-11-09 18h15.38.013214 +0800,
1,condition_2/leftstar.PNG,left,,,,,,,,,,,,,0,9,9,0,328.4444061179154,,,,,,,,,,,,,,,,,,,,,,,,,,,,,,,,,,,,,,,,,,,,,,,,,,,,,,,,,,,,,,,,,,,,,,,,,,,,,,,,,,,,,,,,,,,,,,,,,,,,,,,,,,328.3336131704107,328.4444061179154,328.84860042901005,328.8486154524751,329.3485789454551,329.8757412202119,329.632368596511,329.6323842209147,330.95343987774527,330.95343987774527,331.567405029916,left,1,0.6023511122020864,None,,009,001,2023-11-09_18h15.06.309,untitled,2023.2.2,60.00604004093853,2023-11-09 18h15.38.013214 +0800,
9,condition_2/leftstar.PNG,space,,,,,,,,,,,,,0,10,10,19,331.69202016629765,,,,,,,,,,,,,,,,,,,,,,,,,,,,,,,,,,,,,,,,,,,,,,,,,,,,,,,,,,,,,,,,,,,,,,,,,,,,,,,,,,,,,,,,,,,,,,,,,,,,,,,,,,331.5687078648141,331.69202016629765,332.081968626798,332.0819875563641,332.5819402324489,333.10446866961524,332.8659648505002,332.86598828710544,334.1852167901045,334.1852167901045,334.2825463090801,space,1,0.08197073008341249,None,,009,001,2023-11-09_18h15.06.309,untitled,2023.2.2,60.00604004093853,2023-11-09 18h15.38.013214 +0800,
2,condition_2/blank.PNG,space,,,,,,,,,,,,,0,11,11,20,334.3886164800804,,,,,,,,,,,,,,,,,,,,,,,,,,,,,,,,,,,,,,,,,,,,,,,,,,,,,,,,,,,,,,,,,,,,,,,,,,,,,,,,,,,,,,,,,,,,,,,,,,,,,,,,,,334.28309917259753,334.3886164800804,334.79858010226167,334.7985948252574,335.2984862056044,335.6605868706331,335.58232843878864,335.58234286131506,336.8983740704605,336.8983740704605,337.9324959654484,space,1,1.0240005865161947,None,337.6984189605744,009,001,2023-11-09_18h15.06.309,untitled,2023.2.2,60.00604004093853,2023-11-09 18h15.38.013214 +0800,
9,condition_2/leftstar.PNG,space,,,,,,,,,,,,,0,12,12,3,338.0384768970655,,,,,,,,,,,,,,,,,,,,,,,,,,,,,,,,,,,,,,,,,,,,,,,,,,,,,,,,,,,,,,,,,,,,,,,,,,,,,,,,,,,,,,,,,,,,,,,,,,,,,,,,,,337.93298873510525,338.0384768970655,338.44850542061636,338.44854808725745,338.93194220052305,339.46876155867835,339.2160377293296,339.21606056499627,340.53565143397486,340.53565143397486,341.31597772560986,left,0,0.771321827562133,None,,009,001,2023-11-09_18h15.06.309,untitled,2023.2.2,60.00604004093853,2023-11-09 18h15.38.013214 +0800,
8,condition_2/rightstar.PNG,space,,,,,,,,,,,,,0,13,13,14,341.42388947296763,,,,,,,,,,,,,,,,,,,,,,,,,,,,,,,,,,,,,,,,,,,,,,,,,,,,,,,,,,,,,,,,,,,,,,,,,,,,,,,,,,,,,,,,,,,,,,,,,,,,,,,,,,341.31657265482977,341.42388947296763,341.83216505860514,341.8321899975574,342.331966298161,342.8635580913831,342.61617149826293,342.61619854050036,343.9203801417432,343.9203801417432,345.0164915581647,space,1,1.091303607104237,None,344.7323834096476,009,001,2023-11-09_18h15.06.309,untitled,2023.2.2,60.00604004093853,2023-11-09 18h15.38.013214 +0800,
8,condition_2/leftstar.PNG,space,,,,,,,,,,,,,0,14,14,2,345.12659703190434,,,,,,,,,,,,,,,,,,,,,,,,,,,,,,,,,,,,,,,,,,,,,,,,,,,,,,,,,,,,,,,,,,,,,,,,,,,,,,,,,,,,,,,,,,,,,,,,,,,,,,,,,,345.01722049669365,345.12659703190434,345.5319736897061,345.5319881122325,346.0319137460799,346.57049655857486,346.3165158661311,346.3165528238558,347.63621790875163,347.63621790875163,348.9164295713474,space,1,1.2782973726662021,None,348.44854448162573,009,001,2023-11-09_18h15.06.309,untitled,2023.2.2,60.00604004093853,2023-11-09 18h15.38.013214 +0800,
1,condition_2/rightstar.PNG,right,,,,,,,,,,,,,0,15,15,21,349.0222843058575,,,,,,,,,,,,,,,,,,,,,,,,,,,,,,,,,,,,,,,,,,,,,,,,,,,,,,,,,,,,,,,,,,,,,,,,,,,,,,,,,,,,,,,,,,,,,,,,,,,,,,,,,,348.91707137377875,349.0222843058575,349.4319919281927,349.43202347746933,349.93191275453114,350.4627692993688,350.21570450887225,350.2157189313991,351.5349925047933,351.5349925047933,352.4660522269735,right,1,0.9241357075616179,None,352.34856632574406,009,001,2023-11-09_18h15.06.309,untitled,2023.2.2,60.00604004093853,2023-11-09 18h15.38.013214 +0800,
1,condition_2/blank.PNG,space,,,,,,,,,,,,,0,16,16,8,352.5760958040362,,,,,,,,,,,,,,,,,,,,,,,,,,,,,,,,,,,,,,,,,,,,,,,,,,,,,,,,,,,,,,,,,,,,,,,,,,,,,,,,,,,,,,,,,,,,,,,,,,,,,,,,,,352.46661320316184,352.5760958040362,352.98197424557407,352.9819898699777,353.48189837707537,353.8582325734567,353.7659184880865,353.76593891999914,355.081867068174,355.081867068174,355.582822710792,space,1,0.4975011470419304,None,,009,001,2023-11-09_18h15.06.309,untitled,2023.2.2,60.00604004093853,2023-11-09 18h15.38.013214 +0800,
8,condition_2/blank.PNG,space,,,,,,,,,,,,,0,17,17,10,355.69490196738275,,,,,,,,,,,,,,,,,,,,,,,,,,,,,,,,,,,,,,,,,,,,,,,,,,,,,,,,,,,,,,,,,,,,,,,,,,,,,,,,,,,,,,,,,,,,,,,,,,,,,,,,,,355.58335604380477,355.69490196738275,356.09870987495356,356.0987288045196,356.5989579123632,356.9614654128284,356.88282568543787,356.8828590375308,358.1985540215262,358.1985540215262,358.6158067285294,space,1,0.40558638537549996,None,,009,001,2023-11-09_18h15.06.309,untitled,2023.2.2,60.00604004093853,2023-11-09 18h15.38.013214 +0800,
8,condition_2/leftstar.PNG,space,,,,,,,,,,,,,0,18,18,18,358.7207468344807,,,,,,,,,,,,,,,,,,,,,,,,,,,,,,,,,,,,,,,,,,,,,,,,,,,,,,,,,,,,,,,,,,,,,,,,,,,,,,,,,,,,,,,,,,,,,,,,,,,,,,,,,,358.61634036201144,358.7207468344807,359.13188378929067,359.1319021179181,359.61524575234057,360.147343836338,359.8989548776233,359.89897050202694,361.2210814070497,361.2210814070497,361.51593193408803,space,1,0.2787943488933706,None,,009,001,2023-11-09_18h15.06.309,untitled,2023.2.2,60.00604004093853,2023-11-09 18h15.38.013214 +0800,
2,condition_2/leftstar.PNG,left,,,,,,,,,,,,,0,19,19,17,361.62479586866743,,,,,,,,,,,,,,,,,,,,,,,,,,,,,,,,,,,,,,,,,,,,,,,,,,,,,,,,,,,,,,,,,,,,,,,,,,,,,,,,,,,,,,,,,,,,,,,,,,,,,,,,,,361.5164796896272,361.62479586866743,362.0318055771311,362.031822403412,362.53177267574233,363.05942531640153,362.8157960919159,362.81581201678887,364.13488487668906,364.13488487668906,364.6494511777944,left,1,0.5010911542740359,None,,009,001,2023-11-09_18h15.06.309,untitled,2023.2.2,60.00604004093853,2023-11-09 18h15.38.013214 +0800,
2,condition_2/rightstar.PNG,right,,,,,,,,,,,,,0,20,20,13,364.75811620169566,,,,,,,,,,,,,,,,,,,,,,,,,,,,,,,,,,,,,,,,,,,,,,,,,,,,,,,,,,,,,,,,,,,,,,,,,,,,,,,,,,,,,,,,,,,,,,,,,,,,,,,,,,364.6500214685318,364.75811620169566,365.1653182105131,365.16533413538605,365.6652648772117,366.2013586020005,365.9495515044948,365.94957584250847,367.2541684857581,367.2541684857581,367.78446826097684,right,1,0.526203777680621,None,,009,001,2023-11-09_18h15.06.309,untitled,2023.2.2,60.00604004093853,2023-11-09 18h15.38.013214 +0800,
1,condition_2/rightstar.PNG,right,,,,,,,,,,,,,0,21,21,12,367.90377410477436,,,,,,,,,,,,,,,,,,,,,,,,,,,,,,,,,,,,,,,,,,,,,,,,,,,,,,,,,,,,,,,,,,,,,,,,,,,,,,,,,,,,,,,,,,,,,,,,,,,,,,,,,,367.7860174807031,367.90377410477436,368.2984723840166,368.2984898112361,368.7986377923678,369.32398853769723,369.08254973443013,369.0825692649348,370.40391547558124,370.40391547558124,370.9003634777157,right,1,0.49464248209278594,None,,009,001,2023-11-09_18h15.06.309,untitled,2023.2.2,60.00604004093853,2023-11-09 18h15.38.013214 +0800,
8,condition_2/rightstar.PNG,space,,,,,,,,,,,,,0,22,22,6,371.02012873907756,,,,,,,,,,,,,,,,,,,,,,,,,,,,,,,,,,,,,,,,,,,,,,,,,,,,,,,,,,,,,,,,,,,,,,,,,,,,,,,,,,,,,,,,,,,,,,,,,,,,,,,,,,370.9014556836321,371.02012873907756,371.416079674844,371.41612384383166,371.91578025718377,372.43962024285725,372.19892750486974,372.1989419273966,373.51924310580694,373.51924310580694,373.8331301660062,space,1,0.29965443025457716,None,,009,001,2023-11-09_18h15.06.309,untitled,2023.2.2,60.00604004093853,2023-11-09 18h15.38.013214 +0800,
1,condition_2/rightstar.PNG,right,,,,,,,,,,,,,0,23,23,4,373.94122580057797,,,,,,,,,,,,,,,,,,,,,,,,,,,,,,,,,,,,,,,,,,,,,,,,,,,,,,,,,,,,,,,,,,,,,,,,,,,,,,,,,,,,,,,,,,,,,,,,,,,,,,,,,,373.83370616566003,373.94122580057797,374.34857473888474,374.3485912646963,374.84849796897765,375.3706850730157,375.1324925400984,375.13250786403273,376.45348179321286,376.45348179321286,376.88263518789995,right,1,0.42117743703920496,None,,009,001,2023-11-09_18h15.06.309,untitled,2023.2.2,60.00604004093853,2023-11-09 18h15.38.013214 +0800,
9,condition_2/blank.PNG,space,,,,,,,,,,,,,0,24,24,11,376.9851961779102,,,,,,,,,,,,,,,,,,,,,,,,,,,,,,,,,,,,,,,,,,,,,,,,,,,,,,,,,,,,,,,,,,,,,,,,,,,,,,,,,,,,,,,,,,,,,,,,,,,,,,,,,,376.88322140351033,376.9851961779102,377.39838744134454,377.3984027652789,377.8985089811779,378.2846946645966,378.1825873832338,378.1826075146771,379.49871143739415,379.49871143739415,380.399289149723,space,1,0.889075747410061,None,380.2986361397868,009,001,2023-11-09_18h15.06.309,untitled,2023.2.2,60.00604004093853,2023-11-09 18h15.38.013214 +0800,
1,condition_2/blank.PNG,space,,,,,,,,,,,,,1,0,25,8,380.5064617425958,,,,,,,,,,,,,,,,,,,,,,,,,,,,,,,,,,,,,,,,,,,,,,,,,,,,,,,,,,,,,,,,,,,,,,,,,,,,,,,,,,,,,,,,,,,,,,,,,,,,,,,,,,380.3998056564549,380.5064617425958,380.9153070180316,380.91532204149667,381.41513049231594,381.7718037803245,381.6990439367248,381.69905896018986,383.0152644415314,383.0152644415314,384.1329645773733,space,1,1.1154892827107687,None,383.81519365096324,009,001,2023-11-09_18h15.06.309,untitled,2023.2.2,60.00604004093853,2023-11-09 18h15.38.013214 +0800,
9,condition_2/leftstar.PNG,space,,,,,,,,,,,,,1,1,26,24,384.24049142355466,,,,,,,,,,,,,,,,,,,,,,,,,,,,,,,,,,,,,,,,,,,,,,,,,,,,,,,,,,,,,,,,,,,,,,,,,,,,,,,,,,,,,,,,,,,,,,,,,,,,,,,,,,384.13365024832297,384.24049142355466,384.6486011501363,384.6486155726627,385.1483939765519,385.68536266795104,385.43232875428134,385.43234317680776,386.75489757452146,386.75489757452146,387.71582785152145,space,1,0.9519979255601356,None,387.56538106869107,009,001,2023-11-09_18h15.06.309,untitled,2023.2.2,60.00604004093853,2023-11-09 18h15.38.013214 +0800,
8,condition_2/leftstar.PNG,space,,,,,,,,,,,,,1,2,27,18,387.8211777976019,,,,,,,,,,,,,,,,,,,,,,,,,,,,,,,,,,,,,,,,,,,,,,,,,,,,,,,,,,,,,,,,,,,,,,,,,,,,,,,,,,,,,,,,,,,,,,,,,,,,,,,,,,387.7163644896966,387.8211777976019,388.231948179862,388.23196230191957,388.73175933490506,389.25535023152656,389.0157340750518,389.0157481971089,390.3199898922128,390.3199898922128,390.69943064071754,space,1,0.3626793689063561,None,,009,001,2023-11-09_18h15.06.309,untitled,2023.2.2,60.00604004093853,2023-11-09 18h15.38.013214 +0800,
1,condition_2/leftstar.PNG,left,,,,,,,,,,,,,1,3,28,16,390.807558425505,,,,,,,,,,,,,,,,,,,,,,,,,,,,,,,,,,,,,,,,,,,,,,,,,,,,,,,,,,,,,,,,,,,,,,,,,,,,,,,,,,,,,,,,,,,,,,,,,,,,,,,,,,390.6999264150679,390.807558425505,391.215296471559,391.21531179549334,391.71525365468347,392.2403637241007,391.99907545595465,391.9990910803583,393.3182486726016,393.3182486726016,393.81727800651856,left,1,0.49341987249908925,None,,009,001,2023-11-09_18h15.06.309,untitled,2023.2.2,60.00604004093853,2023-11-09 18h15.38.013214 +0800,
2,condition_2/leftstar.PNG,left,,,,,,,,,,,,,1,4,29,1,393.94001581069483,,,,,,,,,,,,,,,,,,,,,,,,,,,,,,,,,,,,,,,,,,,,,,,,,,,,,,,,,,,,,,,,,,,,,,,,,,,,,,,,,,,,,,,,,,,,,,,,,,,,,,,,,,393.8184753766907,393.94001581069483,394.3318446080932,394.3318596315587,394.8319246831627,395.363188664375,395.1158702777868,395.1158919115767,396.4355900480962,396.4355900480962,396.83320558380115,left,1,0.39212415872361817,None,,009,001,2023-11-09_18h15.06.309,untitled,2023.2.2,60.00604004093853,2023-11-09 18h15.38.013214 +0800,
2,condition_2/leftstar.PNG,left,,,,,,,,,,,,,1,5,30,22,396.94244841017166,,,,,,,,,,,,,,,,,,,,,,,,,,,,,,,,,,,,,,,,,,,,,,,,,,,,,,,,,,,,,,,,,,,,,,,,,,,,,,,,,,,,,,,,,,,,,,,,,,,,,,,,,,396.83403487907776,396.94244841017166,397.3486270205433,397.34864294541626,397.84870348998106,398.378534232618,398.13262504706086,398.132643075219,399.45205636683954,399.45205636683954,399.7995734537774,left,1,0.33574560105444107,None,,009,001,2023-11-09_18h15.06.309,untitled,2023.2.2,60.00604004093853,2023-11-09 18h15.38.013214 +0800,
1,condition_2/rightstar.PNG,right,,,,,,,,,,,,,1,6,31,12,399.90811798948766,,,,,,,,,,,,,,,,,,,,,,,,,,,,,,,,,,,,,,,,,,,,,,,,,,,,,,,,,,,,,,,,,,,,,,,,,,,,,,,,,,,,,,,,,,,,,,,,,,,,,,,,,,399.80027805429313,399.90811798948766,400.31518118148756,400.3151968058912,400.81527207345175,401.34213357843623,401.0991022878636,401.0991224193069,402.4187075793682,402.4187075793682,402.7330047801663,right,1,0.3122254649538263,None,,009,001,2023-11-09_18h15.06.309,untitled,2023.2.2,60.00604004093853,2023-11-09 18h15.38.013214 +0800,
2,condition_2/blank.PNG,space,,,,,,,,,,,,,1,7,32,9,402.8427848456506,,,,,,,,,,,,,,,,,,,,,,,,,,,,,,,,,,,,,,,,,,,,,,,,,,,,,,,,,,,,,,,,,,,,,,,,,,,,,,,,,,,,,,,,,,,,,,,,,,,,,,,,,,402.73370487364195,402.8427848456506,403.2485343858573,403.24857885531424,403.7485201135653,404.1480541457702,404.032899285394,404.0329188158987,405.3486594712283,405.3486594712283,405.8993878538888,space,1,0.5429215892299908,None,,009,001,2023-11-09_18h15.06.309,untitled,2023.2.2,60.00604004093853,2023-11-09 18h15.38.013214 +0800,
2,condition_2/leftstar.PNG,left,,,,,,,,,,,,,1,8,33,17,406.00598865367806,,,,,,,,,,,,,,,,,,,,,,,,,,,,,,,,,,,,,,,,,,,,,,,,,,,,,,,,,,,,,,,,,,,,,,,,,,,,,,,,,,,,,,,,,,,,,,,,,,,,,,,,,,405.89988753433977,406.00598865367806,406.415158135492,406.4151758631808,406.9150708491595,407.43321363637847,407.1988899462069,407.19890436873334,408.5182927214016,408.5182927214016,408.99938283605184,left,1,0.4694625535621526,None,,009,001,2023-11-09_18h15.06.309,untitled,2023.2.2,60.00604004093853,2023-11-09 18h15.38.013214 +0800,
8,condition_2/rightstar.PNG,space,,,,,,,,,,,,,1,9,34,23,409.10440917669325,,,,,,,,,,,,,,,,,,,,,,,,,,,,,,,,,,,,,,,,,,,,,,,,,,,,,,,,,,,,,,,,,,,,,,,,,,,,,,,,,,,,,,,,,,,,,,,,,,,,,,,,,,408.99995763382844,409.10440917669325,409.515171446282,409.5151879720936,410.0151736998016,410.53664688877575,410.2992860548891,410.2993088905562,411.6041827730735,411.6041827730735,411.98464932377897,space,1,0.37604634678882576,None,,009,001,2023-11-09_18h15.06.309,untitled,2023.2.2,60.00604004093853,2023-11-09 18h15.38.013214 +0800,
8,condition_2/rightstar.PNG,space,,,,,,,,,,,,,1,10,35,6,412.0957523556042,,,,,,,,,,,,,,,,,,,,,,,,,,,,,,,,,,,,,,,,,,,,,,,,,,,,,,,,,,,,,,,,,,,,,,,,,,,,,,,,,,,,,,,,,,,,,,,,,,,,,,,,,,411.9861318393198,412.0957523556042,412.49852304314095,412.4985389680144,412.99846039529143,413.5232309343962,413.2824129007097,413.2824279241747,414.60171952572705,414.60171952572705,414.6663862286507,space,1,0.0487691725707009,None,,009,001,2023-11-09_18h15.06.309,untitled,2023.2.2,60.00604004093853,2023-11-09 18h15.38.013214 +0800,
9,condition_2/blank.PNG,space,,,,,,,,,,,,,1,11,36,11,414.77588235064354,,,,,,,,,,,,,,,,,,,,,,,,,,,,,,,,,,,,,,,,,,,,,,,,,,,,,,,,,,,,,,,,,,,,,,,,,,,,,,,,,,,,,,,,,,,,,,,,,,,,,,,,,,414.66687569314513,414.77588235064354,415.1819762286716,415.18199215354457,415.6818147264214,416.05265514206644,415.9656770910485,415.9656963210839,417.2817816147042,417.2817816147042,417.29957600776675,space,1,0.009572050585575198,None,,009,001,2023-11-09_18h15.06.309,untitled,2023.2.2,60.00604004093853,2023-11-09 18h15.38.013214 +0800,
8,condition_2/rightstar.PNG,space,,,,,,,,,,,,,1,12,37,14,417.40349391714904,,,,,,,,,,,,,,,,,,,,,,,,,,,,,,,,,,,,,,,,,,,,,,,,,,,,,,,,,,,,,,,,,,,,,,,,,,,,,,,,,,,,,,,,,,,,,,,,,,,,,,,,,,417.30012196049006,417.40349391714904,417.8152925053639,417.8153072283601,418.3151697636538,418.84135130660593,418.5990074897984,418.5990222127941,419.9181786031602,419.9181786031602,420.91645360889174,space,1,0.9966061992226969,None,420.7319684615402,009,001,2023-11-09_18h15.06.309,untitled,2023.2.2,60.00604004093853,2023-11-09 18h15.38.013214 +0800,
9,condition_2/leftstar.PNG,space,,,,,,,,,,,,,1,13,38,19,421.0299573904483,,,,,,,,,,,,,,,,,,,,,,,,,,,,,,,,,,,,,,,,,,,,,,,,,,,,,,,,,,,,,,,,,,,,,,,,,,,,,,,,,,,,,,,,,,,,,,,,,,,,,,,,,,420.9170957117924,421.0299573904483,421.43193964653415,421.43195406906057,421.931835233451,422.4603790660633,422.21578172948307,422.2157979548258,423.53487171613347,423.53487171613347,423.93268496064024,space,1,0.38758196426988434,None,,009,001,2023-11-09_18h15.06.309,untitled,2023.2.2,60.00604004093853,2023-11-09 18h15.38.013214 +0800,
2,condition_2/blank.PNG,space,,,,,,,,,,,,,1,14,39,20,424.03636760255836,,,,,,,,,,,,,,,,,,,,,,,,,,,,,,,,,,,,,,,,,,,,,,,,,,,,,,,,,,,,,,,,,,,,,,,,,,,,,,,,,,,,,,,,,,,,,,,,,,,,,,,,,,423.93329281004003,424.03636760255836,424.4486298149079,424.44864453790365,424.93223786231715,425.29698415955886,425.2163799638654,425.2164118136118,426.5484514262828,426.5484514262828,427.6661635808971,space,1,1.1026808772626282,None,427.34844974365456,009,001,2023-11-09_18h15.06.309,untitled,2023.2.2,60.00604004093853,2023-11-09 18h15.38.013214 +0800,
9,condition_2/rightstar.PNG,space,,,,,,,,,,,,,1,15,40,7,427.77022962164597,,,,,,,,,,,,,,,,,,,,,,,,,,,,,,,,,,,,,,,,,,,,,,,,,,,,,,,,,,,,,,,,,,,,,,,,,,,,,,,,,,,,,,,,,,,,,,,,,,,,,,,,,,427.66667077308034,427.77022962164597,428.18198824744354,428.18200357137835,428.6818252428468,429.20748036357986,428.9656701802544,428.9656879079432,430.28508557515966,430.28508557515966,430.8826988873923,space,1,0.59072114736,None,,009,001,2023-11-09_18h15.06.309,untitled,2023.2.2,60.00604004093853,2023-11-09 18h15.38.013214 +0800,
9,condition_2/leftstar.PNG,space,,,,,,,,,,,,,1,16,41,3,430.99267155369967,,,,,,,,,,,,,,,,,,,,,,,,,,,,,,,,,,,,,,,,,,,,,,,,,,,,,,,,,,,,,,,,,,,,,,,,,,,,,,,,,,,,,,,,,,,,,,,,,,,,,,,,,,430.8832484457473,430.99267155369967,431.39852475581597,431.3985403802201,431.8986375820393,432.4241424681211,432.1824058997747,432.18242182464815,433.50176330410454,433.50176330410454,433.6993528191681,space,1,0.18117577844805055,None,,009,001,2023-11-09_18h15.06.309,untitled,2023.2.2,60.00604004093853,2023-11-09 18h15.38.013214 +0800,
1,condition_2/rightstar.PNG,right,,,,,,,,,,,,,1,17,42,4,433.80924616157995,,,,,,,,,,,,,,,,,,,,,,,,,,,,,,,,,,,,,,,,,,,,,,,,,,,,,,,,,,,,,,,,,,,,,,,,,,,,,,,,,,,,,,,,,,,,,,,,,,,,,,,,,,433.69988464983476,433.80924616157995,434.2154229691357,434.2154421991711,434.7151623120151,435.2435730367263,434.99928578446657,434.99930531497125,436.31851458793494,436.31851458793494,436.84957665377556,right,1,0.5243144267033131,None,,009,001,2023-11-09_18h15.06.309,untitled,2023.2.2,60.00604004093853,2023-11-09 18h15.38.013214 +0800,
1,condition_2/rightstar.PNG,right,,,,,,,,,,,,,1,18,43,21,436.9532893426242,,,,,,,,,,,,,,,,,,,,,,,,,,,,,,,,,,,,,,,,,,,,,,,,,,,,,,,,,,,,,,,,,,,,,,,,,,,,,,,,,,,,,,,,,,,,,,,,,,,,,,,,,,436.8501857050526,436.9532893426242,437.36533461613703,437.3653502405407,437.86527737673464,438.3890158037841,438.14932002294404,438.14934135626413,439.46910048805216,439.46910048805216,439.9998641878749,right,1,0.525265712516557,None,,009,001,2023-11-09_18h15.06.309,untitled,2023.2.2,60.00604004093853,2023-11-09 18h15.38.013214 +0800,
2,condition_2/rightstar.PNG,left,,,,,,,,,,,,,1,19,44,5,440.10917071373774,,,,,,,,,,,,,,,,,,,,,,,,,,,,,,,,,,,,,,,,,,,,,,,,,,,,,,,,,,,,,,,,,,,,,,,,,,,,,,,,,,,,,,,,,,,,,,,,,,,,,,,,,,440.000695886906,440.10917071373774,440.51533940862214,440.51535473255694,441.0153416621422,441.5442526682425,441.2994125524658,441.2994404961107,442.6187459192513,442.6187459192513,443.1164961553452,right,0,0.49587290388853944,None,,009,001,2023-11-09_18h15.06.309,untitled,2023.2.2,60.00604004093853,2023-11-09 18h15.38.013214 +0800,
8,condition_2/leftstar.PNG,space,,,,,,,,,,,,,1,20,45,2,443.2243715459174,,,,,,,,,,,,,,,,,,,,,,,,,,,,,,,,,,,,,,,,,,,,,,,,,,,,,,,,,,,,,,,,,,,,,,,,,,,,,,,,,,,,,,,,,,,,,,,,,,,,,,,,,,443.11720526290014,443.2243715459174,443.63200773287804,443.632023657751,444.1318816860055,444.6498156470591,444.41595888618417,444.4159793180968,445.73568887245005,445.73568887245005,446.16668865100405,space,1,0.4275987665132561,None,,009,001,2023-11-09_18h15.06.309,untitled,2023.2.2,60.00604004093853,2023-11-09 18h15.38.013214 +0800,
8,condition_2/blank.PNG,space,,,,,,,,,,,,,1,21,46,10,446.272440625012,,,,,,,,,,,,,,,,,,,,,,,,,,,,,,,,,,,,,,,,,,,,,,,,,,,,,,,,,,,,,,,,,,,,,,,,,,,,,,,,,,,,,,,,,,,,,,,,,,,,,,,,,,446.16753567396904,446.272440625012,446.6819877967398,446.68200282020484,447.181986745097,447.56500788581684,447.4657538609556,447.4657700862979,448.78207021546973,448.78207021546973,449.21651397317487,space,1,0.42964225824289315,None,,009,001,2023-11-09_18h15.06.309,untitled,2023.2.2,60.00604004093853,2023-11-09 18h15.38.013214 +0800,
1,condition_2/leftstar.PNG,left,,,,,,,,,,,,,1,22,47,0,449.3232647071461,,,,,,,,,,,,,,,,,,,,,,,,,,,,,,,,,,,,,,,,,,,,,,,,,,,,,,,,,,,,,,,,,,,,,,,,,,,,,,,,,,,,,,,,,,,,,,,,,,,,,,,,,,449.2171122075572,449.3232647071461,449.73249278047365,449.7325237288121,450.2321990717303,450.7623056451873,450.51673328571883,450.5167675392197,451.83650413580995,451.83650413580995,452.2328805361092,left,1,0.3823273570992569,None,,009,001,2023-11-09_18h15.06.309,untitled,2023.2.2,60.00604004093853,2023-11-09 18h15.38.013214 +0800,
2,condition_2/rightstar.PNG,right,,,,,,,,,,,,,1,23,48,13,452.3364291687187,,,,,,,,,,,,,,,,,,,,,,,,,,,,,,,,,,,,,,,,,,,,,,,,,,,,,,,,,,,,,,,,,,,,,,,,,,,,,,,,,,,,,,,,,,,,,,,,,,,,,,,,,,452.23346885500473,452.3364291687187,452.7487571838453,452.7487758129421,453.2486849209779,453.77230916969233,453.5326458395368,453.53266597098013,454.8520125584148,454.8520125584148,455.249706216139,right,1,0.38336007009320383,None,,009,001,2023-11-09_18h15.06.309,untitled,2023.2.2,60.00604004093853,2023-11-09 18h15.38.013214 +0800,
9,condition_2/rightstar.PNG,space,,,,,,,,,,,,,1,24,49,15,455.359936384639,,,,,,,,,,,,,,,,,,,,,,,,,,,,,,,,,,,,,,,,,,,,,,,,,,,,,,,,,,,,,,,,,,,,,,,,,,,,,,,,,,,,,,,,,,,,,,,,,,,,,,,,,,455.25041983073356,455.359936384639,455.7652072772464,455.76522260118077,456.26525700491607,456.79819099451447,456.54942043978485,456.549451087654,457.86889021963384,457.86889021963384,458.0000153239346,space,1,0.12707898466578627,None,,009,001,2023-11-09_18h15.06.309,untitled,2023.2.2,60.00604004093853,2023-11-09 18h15.38.013214 +0800,
