stimuli,star,CorrectAns,trials_3.thisRepN,trials_3.thisTrialN,trials_3.thisN,trials_3.thisIndex,trials.thisRepN,trials.thisTrialN,trials.thisN,trials.thisIndex,trials_4.thisRepN,trials_4.thisTrialN,trials_4.thisN,trials_4.thisIndex,trials_2.thisRepN,trials_2.thisTrialN,trials_2.thisN,trials_2.thisIndex,thisRow.t,notes,routine_21.started,text_9.started,key_resp_8.started,routine_21.stopped,key_resp_8.keys,key_resp_8.rt,key_resp_8.duration,introduction.started,text_6.started,key_resp_5.started,introduction.stopped,key_resp_5.keys,key_resp_5.rt,key_resp_5.duration,routine_14.started,image_6.started,routine_14.stopped,routine_16.started,text_4.started,text_4.stopped,routine_16.stopped,routine_17.started,image_7.started,key_resp_3.started,routine_17.stopped,key_resp_3.keys,key_resp_3.rt,key_resp_3.duration,image_7.stopped,routine_20.started,text_8.started,key_resp_7.started,routine_20.stopped,key_resp_7.keys,key_resp_7.rt,key_resp_7.duration,routine_18.started,text_5.started,key_resp_4.started,routine_18.stopped,key_resp_4.keys,key_resp_4.rt,key_resp_4.duration,trial.started,image_3.started,trial.stopped,routine.started,text_3.started,text_3.stopped,routine.stopped,routine_1.started,image_2.started,key_resp.started,routine_1.stopped,key_resp.keys,key_resp.corr,key_resp.rt,key_resp.duration,image_2.stopped,routine_22.started,text_10.started,key_resp_9.started,routine_22.stopped,key_resp_9.keys,key_resp_9.rt,key_resp_9.duration,routine_19.started,text_7.started,key_resp_6.started,routine_19.stopped,key_resp_6.keys,key_resp_6.rt,key_resp_6.duration,routine_23.started,image_8.started,routine_23.stopped,routine_24.started,text_11.started,text_11.stopped,routine_24.stopped,routine_25.started,image_9.started,key_resp_10.started,routine_25.stopped,key_resp_10.keys,key_resp_10.rt,key_resp_10.duration,image_9.stopped,routine_26.started,text_12.started,key_resp_11.started,text_12.stopped,routine_26.stopped,key_resp_11.keys,key_resp_11.rt,key_resp_11.duration,routine_27.started,text_13.started,key_resp_12.started,text_13.stopped,routine_27.stopped,key_resp_12.keys,key_resp_12.rt,key_resp_12.duration,routine_10.started,image_4.started,routine_10.stopped,routine_11.started,text.started,text.stopped,routine_11.stopped,routine_12.started,image_5.started,key_resp_2.started,routine_12.stopped,key_resp_2.keys,key_resp_2.corr,key_resp_2.rt,key_resp_2.duration,image_5.stopped,participant,session,date,expName,psychopyVersion,frameRate,expStart,
,,,,,,,,,,,,,,,,,,,,,0.026956799993058667,0.04422149999300018,0.04422149999300018,6.3775083999935305,space,6.3270510000002105,None,,,,,,,,,,,,,,,,,,,,,,,,,,,,,,,,,,,,,,,,,,,,,,,,,,,,,,,,,,,,,,,,,,,,,,,,,,,,,,,,,,,,,,,,,,,,,,,,,,,,,,,,,,,,,,,,,,011,001,2023-11-12_14h25.04.868,untitled,2023.2.3,60.08770401081217,2023-11-12 14h40.00.644612 +0800,
,,,,,,,,,,,,,,,,,,,,,,,,,,,,6.377529199991841,6.394052099989494,6.394052099989494,35.09423759998754,space,28.687340999997105,None,,,,,,,,,,,,,,,,,,,,,,,,,,,,,,,,,,,,,,,,,,,,,,,,,,,,,,,,,,,,,,,,,,,,,,,,,,,,,,,,,,,,,,,,,,,,,,,,,,,,,,,,,,,011,001,2023-11-12_14h25.04.868,untitled,2023.2.3,60.08770401081217,2023-11-12 14h40.00.644612 +0800,
8,test/leftstar.PNG,left,0,0,0,5,,,,,,,,,,,,,35.18760549998842,,,,,,,,,,,,,,,,35.09980260000157,35.18760549998842,35.61068249998789,35.61069309999584,36.094069899991155,36.57703239998955,36.37966449999658,36.37967349999235,37.726855699991575,37.726855699991575,38.27760190000117,left,0.5408767000044463,None,,,,,,,,,,,,,,,,,,,,,,,,,,,,,,,,,,,,,,,,,,,,,,,,,,,,,,,,,,,,,,,,,,,,,,,,,,,,,,,,,,,,,,,,,,,,,011,001,2023-11-12_14h25.04.868,untitled,2023.2.3,60.08770401081217,2023-11-12 14h40.00.644612 +0800,
8,test/rightstar.PNG,right,0,1,1,1,,,,,,,,,,,,,38.36057049999363,,,,,,,,,,,,,,,,38.27804949998972,38.36057049999363,38.79405779999797,38.794067599999835,39.27775649999967,39.76081179999164,39.56113180000102,39.56114069999603,40.8763018999889,40.8763018999889,41.328052099997876,right,0.4475853000039933,None,,,,,,,,,,,,,,,,,,,,,,,,,,,,,,,,,,,,,,,,,,,,,,,,,,,,,,,,,,,,,,,,,,,,,,,,,,,,,,,,,,,,,,,,,,,,,011,001,2023-11-12_14h25.04.868,untitled,2023.2.3,60.08770401081217,2023-11-12 14h40.00.644612 +0800,
2,test/leftstar.PNG,space,0,2,2,4,,,,,,,,,,,,,41.41043589999026,,,,,,,,,,,,,,,,41.32841769998777,41.41043589999026,41.844515299992054,41.84452769999916,42.344007599996985,42.812965799996164,42.62819599999057,42.628205599990906,43.926973499997985,43.926973499997985,44.74464910000097,left,0.8053618999983883,None,44.72715999999491,,,,,,,,,,,,,,,,,,,,,,,,,,,,,,,,,,,,,,,,,,,,,,,,,,,,,,,,,,,,,,,,,,,,,,,,,,,,,,,,,,,,,,,,,,,,011,001,2023-11-12_14h25.04.868,untitled,2023.2.3,60.08770401081217,2023-11-12 14h40.00.644612 +0800,
1,test/leftstar.PNG,space,0,3,3,0,,,,,,,,,,,,,44.82681369999773,,,,,,,,,,,,,,,,44.74496739999449,44.82681369999773,45.26039359999413,45.26040239998838,45.74404379999032,46.21094349998748,46.02762569999322,46.02763569999661,47.343236699991394,47.343236699991394,47.89486169999873,left,0.5494701999996323,None,,,,,,,,,,,,,,,,,,,,,,,,,,,,,,,,,,,,,,,,,,,,,,,,,,,,,,,,,,,,,,,,,,,,,,,,,,,,,,,,,,,,,,,,,,,,,011,001,2023-11-12_14h25.04.868,untitled,2023.2.3,60.08770401081217,2023-11-12 14h40.00.644612 +0800,
1,test/blank.PNG,space,0,4,4,2,,,,,,,,,,,,,47.97818759999063,,,,,,,,,,,,,,,,47.89526299999852,47.97818759999063,48.41088289998879,48.41089359999751,48.893717099999776,49.22742679998919,49.17799579999701,49.17800649999117,50.61056760000065,50.61056760000065,69.21100329999172,space,18.589003499990213,None,51.4106912999996,,,,,,,,,,,,,,,,,,,,,,,,,,,,,,,,,,,,,,,,,,,,,,,,,,,,,,,,,,,,,,,,,,,,,,,,,,,,,,,,,,,,,,,,,,,,011,001,2023-11-12_14h25.04.868,untitled,2023.2.3,60.08770401081217,2023-11-12 14h40.00.644612 +0800,
9,test/rightstar.PNG,right,0,5,5,3,,,,,,,,,,,,,69.2950395999942,,,,,,,,,,,,,,,,69.21133559998998,69.2950395999942,69.7117176999891,69.71172849999857,70.2107904000004,70.67750289999822,70.4945272999903,70.49453579999681,71.86114719999023,71.86114719999023,72.24433819999103,right,0.36873930000001565,None,,,,,,,,,,,,,,,,,,,,,,,,,,,,,,,,,,,,,,,,,,,,,,,,,,,,,,,,,,,,,,,,,,,,,,,,,,,,,,,,,,,,,,,,,,,,,011,001,2023-11-12_14h25.04.868,untitled,2023.2.3,60.08770401081217,2023-11-12 14h40.00.644612 +0800,
,,,,,,,,,,,,,,,,,,,,,,,,,,,,,,,,,,,,,,,,,,,,,,,,,,72.24458249998861,72.26036409998778,72.26036409998778,73.81152279999515,space,1.5468594000121811,None,,,,,,,,,,,,,,,,,,,,,,,,,,,,,,,,,,,,,,,,,,,,,,,,,,,,,,,,,,,,,,,,,,,,,,,,,,,,,,,,,,,,,011,001,2023-11-12_14h25.04.868,untitled,2023.2.3,60.08770401081217,2023-11-12 14h40.00.644612 +0800,
,,,,,,,,,,,,,,,,,,,,,,,,,,,,,,,,,,,,,,,,,,,,,,,,,,,,,,,,,73.81156159999955,73.82690349999757,73.82690349999757,85.67756719999306,space,11.840767499990761,None,,,,,,,,,,,,,,,,,,,,,,,,,,,,,,,,,,,,,,,,,,,,,,,,,,,,,,,,,,,,,,,,,,,,,,,,,,,,,,011,001,2023-11-12_14h25.04.868,untitled,2023.2.3,60.08770401081217,2023-11-12 14h40.00.644612 +0800,
2,condition_1/leftstar.PNG,space,,,,,0,0,0,1,,,,,,,,,85.75394869998854,,,,,,,,,,,,,,,,,,,,,,,,,,,,,,,,,,,,,,,,,,,,,85.68267289998767,85.75394869998854,86.19377449998865,86.19378469999356,86.67700699999114,87.12976579999668,86.96130379999522,86.96131689999311,88.29338659999485,88.29338659999485,88.59578119999787,space,1,0.298468299995875,None,,,,,,,,,,,,,,,,,,,,,,,,,,,,,,,,,,,,,,,,,,,,,,,,,,,,,,,,,,,,,,,011,001,2023-11-12_14h25.04.868,untitled,2023.2.3,60.08770401081217,2023-11-12 14h40.00.644612 +0800,
9,condition_1/rightstar.PNG,right,,,,,0,1,1,15,,,,,,,,,88.67215509999369,,,,,,,,,,,,,,,,,,,,,,,,,,,,,,,,,,,,,,,,,,,,,88.59630319999997,88.67215509999369,89.11074029999145,89.1107503999956,89.6108940999984,90.0847444999963,89.89412769999763,89.89413839999179,91.20972479999182,91.20972479999182,91.52780809999967,right,1,0.3069452000054298,None,,,,,,,,,,,,,,,,,,,,,,,,,,,,,,,,,,,,,,,,,,,,,,,,,,,,,,,,,,,,,,,011,001,2023-11-12_14h25.04.868,untitled,2023.2.3,60.08770401081217,2023-11-12 14h40.00.644612 +0800,
1,condition_1/blank.PNG,space,,,,,0,2,2,8,,,,,,,,,91.61054819999845,,,,,,,,,,,,,,,,,,,,,,,,,,,,,,,,,,,,,,,,,,,,,91.5282911999966,91.61054819999845,92.04399520000152,92.04401069998858,92.52753819999634,92.84973929999978,92.81146609999996,92.81147729999793,94.22318489999452,94.22318489999452,94.41092019999633,space,1,0.17955529999744613,None,,,,,,,,,,,,,,,,,,,,,,,,,,,,,,,,,,,,,,,,,,,,,,,,,,,,,,,,,,,,,,,011,001,2023-11-12_14h25.04.868,untitled,2023.2.3,60.08770401081217,2023-11-12 14h40.00.644612 +0800,
2,condition_1/rightstar.PNG,space,,,,,0,3,3,5,,,,,,,,,94.48209799999313,,,,,,,,,,,,,,,,,,,,,,,,,,,,,,,,,,,,,,,,,,,,,94.41129099999671,94.48209799999313,94.92761769999925,94.92762819999189,95.41170929999498,95.88015569999698,95.71134639999946,95.7113568999921,97.05236079999304,97.05236079999304,97.54531839999254,right,0,0.4879561999987345,None,,,,,,,,,,,,,,,,,,,,,,,,,,,,,,,,,,,,,,,,,,,,,,,,,,,,,,,,,,,,,,,011,001,2023-11-12_14h25.04.868,untitled,2023.2.3,60.08770401081217,2023-11-12 14h40.00.644612 +0800,
9,condition_1/blank.PNG,space,,,,,0,4,4,11,,,,,,,,,97.6273693999974,,,,,,,,,,,,,,,,,,,,,,,,,,,,,,,,,,,,,,,,,,,,,97.54574909999792,97.6273693999974,98.0606117999996,98.06062249999377,98.56064809999953,98.88324749999447,98.84468840000045,98.84470049999072,100.2547487999982,100.2547487999982,102.54502409999259,space,1,2.275985700005549,None,101.06056159999571,,,,,,,,,,,,,,,,,,,,,,,,,,,,,,,,,,,,,,,,,,,,,,,,,,,,,,,,,,,,,,011,001,2023-11-12_14h25.04.868,untitled,2023.2.3,60.08770401081217,2023-11-12 14h40.00.644612 +0800,
9,condition_1/leftstar.PNG,left,,,,,0,5,5,19,,,,,,,,,102.62826949999726,,,,,,,,,,,,,,,,,,,,,,,,,,,,,,,,,,,,,,,,,,,,,102.5454541999934,102.62826949999726,103.0621664999926,103.06217710000055,103.54387719999067,104.02711640000052,103.82779769999615,103.82780739999725,105.20329579999088,105.20329579999088,105.62743999999657,left,1,0.41947809999692254,None,,,,,,,,,,,,,,,,,,,,,,,,,,,,,,,,,,,,,,,,,,,,,,,,,,,,,,,,,,,,,,,011,001,2023-11-12_14h25.04.868,untitled,2023.2.3,60.08770401081217,2023-11-12 14h40.00.644612 +0800,
1,condition_1/leftstar.PNG,space,,,,,0,6,6,22,,,,,,,,,105.71060589999252,,,,,,,,,,,,,,,,,,,,,,,,,,,,,,,,,,,,,,,,,,,,,105.62785219999205,105.71060589999252,106.14331780000066,106.14332799999102,106.6280151999963,107.09383789999993,106.91291790000105,106.91292789998988,108.22670339999604,108.22670339999604,108.54476540000178,space,1,0.3114067000133218,None,,,,,,,,,,,,,,,,,,,,,,,,,,,,,,,,,,,,,,,,,,,,,,,,,,,,,,,,,,,,,,,011,001,2023-11-12_14h25.04.868,untitled,2023.2.3,60.08770401081217,2023-11-12 14h40.00.644612 +0800,
9,condition_1/leftstar.PNG,left,,,,,0,7,7,3,,,,,,,,,108.62724159999925,,,,,,,,,,,,,,,,,,,,,,,,,,,,,,,,,,,,,,,,,,,,,108.5451325999893,108.62724159999925,109.06063849999919,109.06065020000096,109.56110320000153,,109.86057989999244,109.86059039999964,111.16007469999022,111.16007469999022,111.59497159998864,left,1,0.42526010000437964,None,,,,,,,,,,,,,,,,,,,,,,,,,,,,,,,,,,,,,,,,,,,,,,,,,,,,,,,,,,,,,,,011,001,2023-11-12_14h25.04.868,untitled,2023.2.3,60.08770401081217,2023-11-12 14h40.00.644612 +0800,
2,condition_1/rightstar.PNG,space,,,,,0,8,8,21,,,,,,,,,111.67708429999766,,,,,,,,,,,,,,,,,,,,,,,,,,,,,,,,,,,,,,,,,,,,,111.59540949999064,111.67708429999766,112.11018249999324,112.11019279999891,112.61016299999028,113.07723689998966,112.89383659999294,112.89384549998795,114.20990509999683,114.20990509999683,114.86060989998805,space,1,0.6455998000019463,None,,,,,,,,,,,,,,,,,,,,,,,,,,,,,,,,,,,,,,,,,,,,,,,,,,,,,,,,,,,,,,,011,001,2023-11-12_14h25.04.868,untitled,2023.2.3,60.08770401081217,2023-11-12 14h40.00.644612 +0800,
8,condition_1/blank.PNG,space,,,,,0,9,9,24,,,,,,,,,114.94401139998809,,,,,,,,,,,,,,,,,,,,,,,,,,,,,,,,,,,,,,,,,,,,,114.86103029998776,114.94401139998809,115.36159979998774,115.36160979999113,115.86106329999166,116.19410149999021,116.1441565999994,116.14416649998748,117.55822009999247,117.55822009999247,118.5112594999955,space,1,0.9393547000072431,None,118.36042279998946,,,,,,,,,,,,,,,,,,,,,,,,,,,,,,,,,,,,,,,,,,,,,,,,,,,,,,,,,,,,,,011,001,2023-11-12_14h25.04.868,untitled,2023.2.3,60.08770401081217,2023-11-12 14h40.00.644612 +0800,
8,condition_1/rightstar.PNG,right,,,,,0,10,10,6,,,,,,,,,118.59317929999088,,,,,,,,,,,,,,,,,,,,,,,,,,,,,,,,,,,,,,,,,,,,,118.51163959999394,118.59317929999088,119.02692989999196,119.02694079998764,119.52681559999473,120.01054069999373,119.81019150000066,119.81020069999795,121.16942159998871,121.16942159998871,121.62796969999908,right,1,0.4449095000018133,None,,,,,,,,,,,,,,,,,,,,,,,,,,,,,,,,,,,,,,,,,,,,,,,,,,,,,,,,,,,,,,,011,001,2023-11-12_14h25.04.868,untitled,2023.2.3,60.08770401081217,2023-11-12 14h40.00.644612 +0800,
1,condition_1/leftstar.PNG,space,,,,,0,11,11,16,,,,,,,,,121.69791719999921,,,,,,,,,,,,,,,,,,,,,,,,,,,,,,,,,,,,,,,,,,,,,121.6283434999932,121.69791719999921,122.14382129999285,122.14383299999463,122.6278922999918,123.12736169999698,122.9276389000006,122.92764929999248,124.22656709999137,124.22656709999137,124.79443719999108,space,1,0.5611460999934934,None,,,,,,,,,,,,,,,,,,,,,,,,,,,,,,,,,,,,,,,,,,,,,,,,,,,,,,,,,,,,,,,011,001,2023-11-12_14h25.04.868,untitled,2023.2.3,60.08770401081217,2023-11-12 14h40.00.644612 +0800,
8,condition_1/leftstar.PNG,left,,,,,0,12,12,18,,,,,,,,,124.87725539998792,,,,,,,,,,,,,,,,,,,,,,,,,,,,,,,,,,,,,,,,,,,,,124.79488609998953,124.87725539998792,125.30999199999496,125.31000199999835,125.79416729998775,126.27782129999832,126.07736260000092,126.07737289999204,127.3942340999929,127.3942340999929,127.87765239999862,left,1,0.47576489999482874,None,,,,,,,,,,,,,,,,,,,,,,,,,,,,,,,,,,,,,,,,,,,,,,,,,,,,,,,,,,,,,,,011,001,2023-11-12_14h25.04.868,untitled,2023.2.3,60.08770401081217,2023-11-12 14h40.00.644612 +0800,
1,condition_1/rightstar.PNG,space,,,,,0,13,13,4,,,,,,,,,127.96014919999288,,,,,,,,,,,,,,,,,,,,,,,,,,,,,,,,,,,,,,,,,,,,,127.8780187999946,127.96014919999288,128.3940617999906,128.39407169999322,128.8934930999967,129.37794589999248,129.1772406999953,129.1772493999888,130.47645940000075,130.47645940000075,130.76191119999567,space,1,0.2844757000129903,None,,,,,,,,,,,,,,,,,,,,,,,,,,,,,,,,,,,,,,,,,,,,,,,,,,,,,,,,,,,,,,,011,001,2023-11-12_14h25.04.868,untitled,2023.2.3,60.08770401081217,2023-11-12 14h40.00.644612 +0800,
8,condition_1/leftstar.PNG,left,,,,,0,14,14,2,,,,,,,,,130.8433595999959,,,,,,,,,,,,,,,,,,,,,,,,,,,,,,,,,,,,,,,,,,,,,130.76237919999403,130.8433595999959,131.27803359999962,131.27804379998997,131.77731769999082,132.27835379999306,132.06086279999,132.06087429999025,133.35970200000156,133.35970200000156,133.86077329999534,left,1,0.4994216999912169,None,,,,,,,,,,,,,,,,,,,,,,,,,,,,,,,,,,,,,,,,,,,,,,,,,,,,,,,,,,,,,,,011,001,2023-11-12_14h25.04.868,untitled,2023.2.3,60.08770401081217,2023-11-12 14h40.00.644612 +0800,
2,condition_1/blank.PNG,space,,,,,0,15,15,9,,,,,,,,,133.9344795999932,,,,,,,,,,,,,,,,,,,,,,,,,,,,,,,,,,,,,,,,,,,,,133.8611874999915,133.9344795999932,134.377825699994,134.37783569999738,134.86050749999413,135.1817694999918,135.14437399999588,135.14438519999385,136.56029009999475,136.56029009999475,137.01156859999173,space,1,0.4500219999899855,None,,,,,,,,,,,,,,,,,,,,,,,,,,,,,,,,,,,,,,,,,,,,,,,,,,,,,,,,,,,,,,,011,001,2023-11-12_14h25.04.868,untitled,2023.2.3,60.08770401081217,2023-11-12 14h40.00.644612 +0800,
8,condition_1/blank.PNG,space,,,,,0,16,16,10,,,,,,,,,137.08276969999133,,,,,,,,,,,,,,,,,,,,,,,,,,,,,,,,,,,,,,,,,,,,,137.01199049998831,137.08276969999133,137.52799439999217,137.52801129998988,138.02762899998925,138.36051980000047,138.31164549999812,138.3116575999884,139.62678500000038,139.62678500000038,143.64456919999793,space,1,4.0057174999965355,None,140.42780609999318,,,,,,,,,,,,,,,,,,,,,,,,,,,,,,,,,,,,,,,,,,,,,,,,,,,,,,,,,,,,,,011,001,2023-11-12_14h25.04.868,untitled,2023.2.3,60.08770401081217,2023-11-12 14h40.00.644612 +0800,
2,condition_1/rightstar.PNG,space,,,,,0,17,17,13,,,,,,,,,143.71378409999306,,,,,,,,,,,,,,,,,,,,,,,,,,,,,,,,,,,,,,,,,,,,,143.6450337999995,143.71378409999306,144.16013559998828,144.16014690000156,144.6441238999978,145.10387320000154,144.92756499999086,144.92757479999273,146.31010909999895,146.31010909999895,146.86218769999687,space,1,0.5511389000021154,None,,,,,,,,,,,,,,,,,,,,,,,,,,,,,,,,,,,,,,,,,,,,,,,,,,,,,,,,,,,,,,,011,001,2023-11-12_14h25.04.868,untitled,2023.2.3,60.08770401081217,2023-11-12 14h40.00.644612 +0800,
1,condition_1/leftstar.PNG,space,,,,,0,18,18,0,,,,,,,,,146.93797259998973,,,,,,,,,,,,,,,,,,,,,,,,,,,,,,,,,,,,,,,,,,,,,146.86258689999522,146.93797259998973,147.3771745999984,147.37718489998952,147.87729959998978,148.32709929998964,148.16096689998813,148.16097679999075,149.4763632999966,149.4763632999966,150.07775729999412,space,1,0.5860742000077153,None,,,,,,,,,,,,,,,,,,,,,,,,,,,,,,,,,,,,,,,,,,,,,,,,,,,,,,,,,,,,,,,011,001,2023-11-12_14h25.04.868,untitled,2023.2.3,60.08770401081217,2023-11-12 14h40.00.644612 +0800,
8,condition_1/rightstar.PNG,right,,,,,0,19,19,23,,,,,,,,,150.14574779999384,,,,,,,,,,,,,,,,,,,,,,,,,,,,,,,,,,,,,,,,,,,,,150.0781990999967,150.14574779999384,150.59380370000144,150.59381310000026,151.0776729999925,151.5270465999929,151.36098479999055,151.36099639999156,152.6771019000007,152.6771019000007,153.07768119999673,right,1,0.39491020000423305,None,,,,,,,,,,,,,,,,,,,,,,,,,,,,,,,,,,,,,,,,,,,,,,,,,,,,,,,,,,,,,,,011,001,2023-11-12_14h25.04.868,untitled,2023.2.3,60.08770401081217,2023-11-12 14h40.00.644612 +0800,
8,condition_1/rightstar.PNG,right,,,,,0,20,20,14,,,,,,,,,153.16006539999216,,,,,,,,,,,,,,,,,,,,,,,,,,,,,,,,,,,,,,,,,,,,,153.0780592999945,153.16006539999216,153.59400279998954,153.59401570000045,154.07688559999224,154.54743919998873,154.36082560000068,154.3608455999929,155.67798179999227,155.67798179999227,156.12806569998793,right,1,0.43938039999920875,None,,,,,,,,,,,,,,,,,,,,,,,,,,,,,,,,,,,,,,,,,,,,,,,,,,,,,,,,,,,,,,,011,001,2023-11-12_14h25.04.868,untitled,2023.2.3,60.08770401081217,2023-11-12 14h40.00.644612 +0800,
9,condition_1/rightstar.PNG,right,,,,,0,21,21,7,,,,,,,,,156.2035404999915,,,,,,,,,,,,,,,,,,,,,,,,,,,,,,,,,,,,,,,,,,,,,156.1284236999927,156.2035404999915,156.64704469998833,156.64705619998858,157.14354159998766,157.6275156999909,157.42690599999332,157.4269190999912,158.72619180000038,158.72619180000038,159.06075779999082,right,1,0.32434469999861903,None,,,,,,,,,,,,,,,,,,,,,,,,,,,,,,,,,,,,,,,,,,,,,,,,,,,,,,,,,,,,,,,011,001,2023-11-12_14h25.04.868,untitled,2023.2.3,60.08770401081217,2023-11-12 14h40.00.644612 +0800,
2,condition_1/leftstar.PNG,space,,,,,0,22,22,17,,,,,,,,,159.13428879999265,,,,,,,,,,,,,,,,,,,,,,,,,,,,,,,,,,,,,,,,,,,,,159.06121479999274,159.13428879999265,159.57782269999734,159.57783359999303,160.06046300000162,160.52754659998755,160.34443440000177,160.34444669999357,161.65998799999943,161.65998799999943,161.92928329999268,space,1,0.26829999999608845,None,,,,,,,,,,,,,,,,,,,,,,,,,,,,,,,,,,,,,,,,,,,,,,,,,,,,,,,,,,,,,,,011,001,2023-11-12_14h25.04.868,untitled,2023.2.3,60.08770401081217,2023-11-12 14h40.00.644612 +0800,
9,condition_1/leftstar.PNG,left,,,,,0,23,23,20,,,,,,,,,162.01025700000173,,,,,,,,,,,,,,,,,,,,,,,,,,,,,,,,,,,,,,,,,,,,,161.9297254999983,162.01025700000173,162.4437016999873,162.44371149998915,162.9437930999993,163.42778729999554,163.22753839999496,163.22754859999986,164.54304079999565,164.54304079999565,165.04408809999586,left,1,0.4842637999972794,None,,,,,,,,,,,,,,,,,,,,,,,,,,,,,,,,,,,,,,,,,,,,,,,,,,,,,,,,,,,,,,,011,001,2023-11-12_14h25.04.868,untitled,2023.2.3,60.08770401081217,2023-11-12 14h40.00.644612 +0800,
1,condition_1/rightstar.PNG,space,,,,,0,24,24,12,,,,,,,,,165.11288010000135,,,,,,,,,,,,,,,,,,,,,,,,,,,,,,,,,,,,,,,,,,,,,165.0445233999926,165.11288010000135,165.5449227999925,165.54493319999892,166.04462149999745,166.51054639999347,166.32758659998944,166.32760499999858,167.64283469998918,167.64283469998918,168.27761479999754,space,1,0.6186047000082908,None,,,,,,,,,,,,,,,,,,,,,,,,,,,,,,,,,,,,,,,,,,,,,,,,,,,,,,,,,,,,,,,011,001,2023-11-12_14h25.04.868,untitled,2023.2.3,60.08770401081217,2023-11-12 14h40.00.644612 +0800,
2,condition_1/rightstar.PNG,space,,,,,1,0,25,21,,,,,,,,,168.35989300000074,,,,,,,,,,,,,,,,,,,,,,,,,,,,,,,,,,,,,,,,,,,,,168.27809100000013,168.35989300000074,168.7786982999969,168.77870899999107,169.27804989999277,169.7770892999979,169.5770410999976,169.5770507999987,170.89619949999906,170.89619949999906,171.27861529999063,space,1,0.36917560000438243,None,,,,,,,,,,,,,,,,,,,,,,,,,,,,,,,,,,,,,,,,,,,,,,,,,,,,,,,,,,,,,,,011,001,2023-11-12_14h25.04.868,untitled,2023.2.3,60.08770401081217,2023-11-12 14h40.00.644612 +0800,
2,condition_1/blank.PNG,space,,,,,1,1,26,9,,,,,,,,,171.3599669999967,,,,,,,,,,,,,,,,,,,,,,,,,,,,,,,,,,,,,,,,,,,,,171.27920729998732,171.3599669999967,171.79334879999806,171.7933597999945,172.2931733000005,172.62736759999825,172.57719969999744,172.57721540000057,173.99368200000026,173.99368200000026,175.24423019999813,space,1,1.2363431000121636,None,174.79303279999294,,,,,,,,,,,,,,,,,,,,,,,,,,,,,,,,,,,,,,,,,,,,,,,,,,,,,,,,,,,,,,011,001,2023-11-12_14h25.04.868,untitled,2023.2.3,60.08770401081217,2023-11-12 14h40.00.644612 +0800,
2,condition_1/leftstar.PNG,space,,,,,1,2,27,1,,,,,,,,,175.31564669999352,,,,,,,,,,,,,,,,,,,,,,,,,,,,,,,,,,,,,,,,,,,,,175.2451141999918,175.31564669999352,175.7598624999955,175.7598730999889,176.2608518999914,,176.55999879998853,176.56000869999116,177.9095501999982,177.9095501999982,178.21149459999288,space,1,0.29781709999952,None,,,,,,,,,,,,,,,,,,,,,,,,,,,,,,,,,,,,,,,,,,,,,,,,,,,,,,,,,,,,,,,011,001,2023-11-12_14h25.04.868,untitled,2023.2.3,60.08770401081217,2023-11-12 14h40.00.644612 +0800,
1,condition_1/rightstar.PNG,space,,,,,1,3,28,4,,,,,,,,,178.29389739999897,,,,,,,,,,,,,,,,,,,,,,,,,,,,,,,,,,,,,,,,,,,,,178.2118599999958,178.29389739999897,178.72695919999387,178.7269687999942,179.22794040000008,,179.5268924999982,179.52690359999542,180.82648399999016,180.82648399999016,181.47796689999814,space,1,0.6503960000118241,None,,,,,,,,,,,,,,,,,,,,,,,,,,,,,,,,,,,,,,,,,,,,,,,,,,,,,,,,,,,,,,,011,001,2023-11-12_14h25.04.868,untitled,2023.2.3,60.08770401081217,2023-11-12 14h40.00.644612 +0800,
1,condition_1/blank.PNG,space,,,,,1,4,29,8,,,,,,,,,181.54404670000076,,,,,,,,,,,,,,,,,,,,,,,,,,,,,,,,,,,,,,,,,,,,,181.47850579999795,181.54404670000076,181.99367630000052,181.9936858000001,182.4936630000011,182.80975239998952,182.77734109999437,182.77735199999006,184.18481890000112,184.18481890000112,185.14455729999463,space,1,0.9578473000001395,None,184.99378039999283,,,,,,,,,,,,,,,,,,,,,,,,,,,,,,,,,,,,,,,,,,,,,,,,,,,,,,,,,,,,,,011,001,2023-11-12_14h25.04.868,untitled,2023.2.3,60.08770401081217,2023-11-12 14h40.00.644612 +0800,
2,condition_1/rightstar.PNG,space,,,,,1,5,30,5,,,,,,,,,185.21080809998966,,,,,,,,,,,,,,,,,,,,,,,,,,,,,,,,,,,,,,,,,,,,,185.14498599999934,185.21080809998966,185.66026639999473,185.6602772999904,186.16041369999584,186.64394099998754,186.4440123999957,186.44402239999908,187.8012461999897,187.8012461999897,188.07794540000032,space,1,0.2747009999875445,None,,,,,,,,,,,,,,,,,,,,,,,,,,,,,,,,,,,,,,,,,,,,,,,,,,,,,,,,,,,,,,,011,001,2023-11-12_14h25.04.868,untitled,2023.2.3,60.08770401081217,2023-11-12 14h40.00.644612 +0800,
9,condition_1/rightstar.PNG,right,,,,,1,6,31,15,,,,,,,,,188.1612793999957,,,,,,,,,,,,,,,,,,,,,,,,,,,,,,,,,,,,,,,,,,,,,188.07839169999352,188.1612793999957,188.59373139998934,188.59374179999577,189.07653229999414,189.56057560000045,189.36027269999613,189.3602838999941,190.676489999998,190.676489999998,191.11148909998883,right,1,0.42863959999522194,None,,,,,,,,,,,,,,,,,,,,,,,,,,,,,,,,,,,,,,,,,,,,,,,,,,,,,,,,,,,,,,,011,001,2023-11-12_14h25.04.868,untitled,2023.2.3,60.08770401081217,2023-11-12 14h40.00.644612 +0800,
9,condition_1/rightstar.PNG,right,,,,,1,7,32,7,,,,,,,,,191.1934285999887,,,,,,,,,,,,,,,,,,,,,,,,,,,,,,,,,,,,,,,,,,,,,191.11191169999074,191.1934285999887,191.62687519998872,191.6268856999959,192.12680980000005,192.59404979999817,192.41148819999944,192.41149959999893,193.72652969999763,193.72652969999763,194.04429619999428,right,1,0.31219830000190996,None,,,,,,,,,,,,,,,,,,,,,,,,,,,,,,,,,,,,,,,,,,,,,,,,,,,,,,,,,,,,,,,011,001,2023-11-12_14h25.04.868,untitled,2023.2.3,60.08770401081217,2023-11-12 14h40.00.644612 +0800,
9,condition_1/blank.PNG,space,,,,,1,8,33,11,,,,,,,,,194.11527639999986,,,,,,,,,,,,,,,,,,,,,,,,,,,,,,,,,,,,,,,,,,,,,194.04466189999948,194.11527639999986,194.5609495999961,194.560959800001,195.059889799988,195.37888009999006,195.34354799998982,195.3435591999878,196.7503457999992,196.7503457999992,197.97762109999894,space,1,1.220416699987254,None,197.55996089999098,,,,,,,,,,,,,,,,,,,,,,,,,,,,,,,,,,,,,,,,,,,,,,,,,,,,,,,,,,,,,,011,001,2023-11-12_14h25.04.868,untitled,2023.2.3,60.08770401081217,2023-11-12 14h40.00.644612 +0800,
8,condition_1/leftstar.PNG,left,,,,,1,9,34,18,,,,,,,,,198.0432839999994,,,,,,,,,,,,,,,,,,,,,,,,,,,,,,,,,,,,,,,,,,,,,197.97800849999476,198.0432839999994,198.4933394999971,198.49334969998745,198.9932681999926,199.4400498999894,199.2775735999894,199.27758339999127,200.626614599998,200.626614599998,200.9772687999939,space,0,0.3454834000003757,None,,,,,,,,,,,,,,,,,,,,,,,,,,,,,,,,,,,,,,,,,,,,,,,,,,,,,,,,,,,,,,,011,001,2023-11-12_14h25.04.868,untitled,2023.2.3,60.08770401081217,2023-11-12 14h40.00.644612 +0800,
8,condition_1/rightstar.PNG,right,,,,,1,10,35,23,,,,,,,,,201.04717309999978,,,,,,,,,,,,,,,,,,,,,,,,,,,,,,,,,,,,,,,,,,,,,200.97771019999345,201.04717309999978,201.49355129999458,201.4935614999995,201.99356839999382,202.43042520000017,202.27783939999063,202.277849399994,203.5765371000016,203.5765371000016,204.0279193999886,right,1,0.4423374000034528,None,,,,,,,,,,,,,,,,,,,,,,,,,,,,,,,,,,,,,,,,,,,,,,,,,,,,,,,,,,,,,,,011,001,2023-11-12_14h25.04.868,untitled,2023.2.3,60.08770401081217,2023-11-12 14h40.00.644612 +0800,
1,condition_1/leftstar.PNG,space,,,,,1,11,36,22,,,,,,,,,204.1019826999982,,,,,,,,,,,,,,,,,,,,,,,,,,,,,,,,,,,,,,,,,,,,,204.02827460000117,204.1019826999982,204.54341519999434,204.5434263999923,205.02686449998873,205.46897129999707,205.31151749999844,205.31152719999955,206.62668469999335,206.62668469999335,206.91137999999046,space,1,0.28287510000518523,None,,,,,,,,,,,,,,,,,,,,,,,,,,,,,,,,,,,,,,,,,,,,,,,,,,,,,,,,,,,,,,,011,001,2023-11-12_14h25.04.868,untitled,2023.2.3,60.08770401081217,2023-11-12 14h40.00.644612 +0800,
1,condition_1/leftstar.PNG,space,,,,,1,12,37,0,,,,,,,,,206.99284449999686,,,,,,,,,,,,,,,,,,,,,,,,,,,,,,,,,,,,,,,,,,,,,206.91180699999677,206.99284449999686,207.42669659999956,207.42671159999736,207.91058329999214,208.36643619999813,208.1940398000006,208.19405199999164,209.52819189999718,209.52819189999718,209.87718529999256,space,1,0.33847649999370333,None,,,,,,,,,,,,,,,,,,,,,,,,,,,,,,,,,,,,,,,,,,,,,,,,,,,,,,,,,,,,,,,011,001,2023-11-12_14h25.04.868,untitled,2023.2.3,60.08770401081217,2023-11-12 14h40.00.644612 +0800,
2,condition_1/leftstar.PNG,space,,,,,1,13,38,17,,,,,,,,,209.9465637999965,,,,,,,,,,,,,,,,,,,,,,,,,,,,,,,,,,,,,,,,,,,,,209.87760310000158,209.9465637999965,210.39386069998727,210.39387089999218,210.87729939998826,211.31893739999214,211.1621623999963,211.1622018999915,212.47652839998773,212.47652839998773,212.76095859998895,space,1,0.27957909999531694,None,,,,,,,,,,,,,,,,,,,,,,,,,,,,,,,,,,,,,,,,,,,,,,,,,,,,,,,,,,,,,,,011,001,2023-11-12_14h25.04.868,untitled,2023.2.3,60.08770401081217,2023-11-12 14h40.00.644612 +0800,
8,condition_1/rightstar.PNG,right,,,,,1,14,39,6,,,,,,,,,212.83496899998863,,,,,,,,,,,,,,,,,,,,,,,,,,,,,,,,,,,,,,,,,,,,,212.7613183999929,212.83496899998863,213.27868540000054,213.27869629999623,213.76050769998983,214.2019741999975,214.0442738999991,214.04428570000164,215.35944789998757,215.35944789998757,215.7938010999933,right,1,0.42119709998951294,None,,,,,,,,,,,,,,,,,,,,,,,,,,,,,,,,,,,,,,,,,,,,,,,,,,,,,,,,,,,,,,,011,001,2023-11-12_14h25.04.868,untitled,2023.2.3,60.08770401081217,2023-11-12 14h40.00.644612 +0800,
9,condition_1/leftstar.PNG,left,,,,,1,15,40,3,,,,,,,,,215.86306199998944,,,,,,,,,,,,,,,,,,,,,,,,,,,,,,,,,,,,,,,,,,,,,215.79415169999993,215.86306199998944,216.31056459998945,216.31057459999283,216.793454499988,217.24074359999213,217.07711949999793,217.0771296999883,218.39351409999654,218.39351409999654,218.81066879999707,left,1,0.40662480000173673,None,,,,,,,,,,,,,,,,,,,,,,,,,,,,,,,,,,,,,,,,,,,,,,,,,,,,,,,,,,,,,,,011,001,2023-11-12_14h25.04.868,untitled,2023.2.3,60.08770401081217,2023-11-12 14h40.00.644612 +0800,
8,condition_1/leftstar.PNG,left,,,,,1,16,41,2,,,,,,,,,218.8843210999912,,,,,,,,,,,,,,,,,,,,,,,,,,,,,,,,,,,,,,,,,,,,,218.81104239998967,218.8843210999912,219.3116893999977,219.31171739999263,219.81049519999942,220.2494924999919,220.09412619999785,220.09413729999505,221.41130029999476,221.41130029999476,221.77717139999731,left,1,0.35741549999511335,None,,,,,,,,,,,,,,,,,,,,,,,,,,,,,,,,,,,,,,,,,,,,,,,,,,,,,,,,,,,,,,,011,001,2023-11-12_14h25.04.868,untitled,2023.2.3,60.08770401081217,2023-11-12 14h40.00.644612 +0800,
2,condition_1/rightstar.PNG,space,,,,,1,17,42,13,,,,,,,,,221.84818939999968,,,,,,,,,,,,,,,,,,,,,,,,,,,,,,,,,,,,,,,,,,,,,221.77752659999533,221.84818939999968,222.2774911999877,222.27750079998805,222.77701669999806,223.2267576999875,223.0607377999986,223.06074979998812,224.3764247999934,224.3764247999934,224.71166999998968,space,1,0.32466569999814965,None,,,,,,,,,,,,,,,,,,,,,,,,,,,,,,,,,,,,,,,,,,,,,,,,,,,,,,,,,,,,,,,011,001,2023-11-12_14h25.04.868,untitled,2023.2.3,60.08770401081217,2023-11-12 14h40.00.644612 +0800,
8,condition_1/blank.PNG,space,,,,,1,18,43,10,,,,,,,,,224.78183989999525,,,,,,,,,,,,,,,,,,,,,,,,,,,,,,,,,,,,,,,,,,,,,224.71203049999895,224.78183989999525,225.2268447999959,225.226854499997,225.7120689000003,226.04323809999914,225.99660699999367,225.99661899999774,227.40458439999202,227.40458439999202,228.76268079999136,space,1,1.3570307000045432,None,228.21002399999998,,,,,,,,,,,,,,,,,,,,,,,,,,,,,,,,,,,,,,,,,,,,,,,,,,,,,,,,,,,,,,011,001,2023-11-12_14h25.04.868,untitled,2023.2.3,60.08770401081217,2023-11-12 14h40.00.644612 +0800,
9,condition_1/leftstar.PNG,left,,,,,1,19,44,20,,,,,,,,,228.82748389999324,,,,,,,,,,,,,,,,,,,,,,,,,,,,,,,,,,,,,,,,,,,,,228.763134599998,228.82748389999324,229.27721899999597,229.2772291000001,229.77730139999767,230.21551129998988,230.06053769998834,230.06054929998936,231.40566199999012,231.40566199999012,231.7274941999931,left,1,0.31400520000897814,None,,,,,,,,,,,,,,,,,,,,,,,,,,,,,,,,,,,,,,,,,,,,,,,,,,,,,,,,,,,,,,,011,001,2023-11-12_14h25.04.868,untitled,2023.2.3,60.08770401081217,2023-11-12 14h40.00.644612 +0800,
1,condition_1/rightstar.PNG,space,,,,,1,20,45,12,,,,,,,,,231.81105099999695,,,,,,,,,,,,,,,,,,,,,,,,,,,,,,,,,,,,,,,,,,,,,231.72784589999355,231.81105099999695,232.24383169999055,232.24384629999986,232.7432911999931,233.18224769999506,233.02687279999373,233.02688419999322,234.32704739998735,234.32704739998735,234.7608610999887,space,1,0.42958729999372736,None,,,,,,,,,,,,,,,,,,,,,,,,,,,,,,,,,,,,,,,,,,,,,,,,,,,,,,,,,,,,,,,011,001,2023-11-12_14h25.04.868,untitled,2023.2.3,60.08770401081217,2023-11-12 14h40.00.644612 +0800,
8,condition_1/blank.PNG,space,,,,,1,21,46,24,,,,,,,,,234.84309529999155,,,,,,,,,,,,,,,,,,,,,,,,,,,,,,,,,,,,,,,,,,,,,234.76126010000007,234.84309529999155,235.26239589999022,235.26243769998837,235.76050089999626,236.07678179998766,236.04471199998807,236.04472199999145,237.4544668999879,237.4544668999879,238.295601299993,space,1,0.8309376000106568,None,238.26117059998796,,,,,,,,,,,,,,,,,,,,,,,,,,,,,,,,,,,,,,,,,,,,,,,,,,,,,,,,,,,,,,011,001,2023-11-12_14h25.04.868,untitled,2023.2.3,60.08770401081217,2023-11-12 14h40.00.644612 +0800,
1,condition_1/leftstar.PNG,space,,,,,1,22,47,16,,,,,,,,,238.36716090000118,,,,,,,,,,,,,,,,,,,,,,,,,,,,,,,,,,,,,,,,,,,,,238.29610649999813,238.36716090000118,238.81025029999728,238.8102624999883,239.31081979999726,,239.610111099988,239.61012189999747,240.95982239999285,240.95982239999285,241.54460019999533,space,1,0.5834345999901416,None,,,,,,,,,,,,,,,,,,,,,,,,,,,,,,,,,,,,,,,,,,,,,,,,,,,,,,,,,,,,,,,011,001,2023-11-12_14h25.04.868,untitled,2023.2.3,60.08770401081217,2023-11-12 14h40.00.644612 +0800,
8,condition_1/rightstar.PNG,right,,,,,1,23,48,14,,,,,,,,,241.62755509999988,,,,,,,,,,,,,,,,,,,,,,,,,,,,,,,,,,,,,,,,,,,,,241.5449907000002,241.62755509999988,242.06047099998978,242.0604819,242.54373039999336,242.98393809999106,242.8268065000011,242.82681679999223,244.1433309999993,244.1433309999993,244.44441019999795,right,1,0.2973248999915086,None,,,,,,,,,,,,,,,,,,,,,,,,,,,,,,,,,,,,,,,,,,,,,,,,,,,,,,,,,,,,,,,011,001,2023-11-12_14h25.04.868,untitled,2023.2.3,60.08770401081217,2023-11-12 14h40.00.644612 +0800,
9,condition_1/leftstar.PNG,left,,,,,1,24,49,19,,,,,,,,,244.5112889000011,,,,,,,,,,,,,,,,,,,,,,,,,,,,,,,,,,,,,,,,,,,,,244.44478749998962,244.5112889000011,244.9604410999891,244.96045049998793,245.44426599999133,245.88855099999637,245.72876600000018,245.7287776000012,247.04266749999078,247.04266749999078,247.3612923999899,left,1,0.313461500001722,None,,,,,,,,,,,,,,,,,,,,,,,,,,,,,,,,,,,,,,,,,,,,,,,,,,,,,,,,,,,,,,,011,001,2023-11-12_14h25.04.868,untitled,2023.2.3,60.08770401081217,2023-11-12 14h40.00.644612 +0800,
,,,,,,,,,,,,,,,,,,,,,,,,,,,,,,,,,,,,,,,,,,,,,,,,,,,,,,,,,,,,,,,,,,,,,,,,,,,,,,,,247.36157929999172,247.37838419999753,247.37838419999753,248.77733219999936,space,1.3889178000099491,None,,,,,,,,,,,,,,,,,,,,,,,,,,,,,,,,,,,,,,,,,,,,,,,,,,,,,,,011,001,2023-11-12_14h25.04.868,untitled,2023.2.3,60.08770401081217,2023-11-12 14h40.00.644612 +0800,
,,,,,,,,,,,,,,,,,,,,,,,,,,,,,,,,,,,,,,,,,,,,,,,,,,,,,,,,,,,,,,,,,,,,,,,,,,,,,,,,,,,,,,,248.77735469999607,248.79312539999955,248.79312539999955,259.29417509998893,space,10.497448299996904,None,,,,,,,,,,,,,,,,,,,,,,,,,,,,,,,,,,,,,,,,,,,,,,,,011,001,2023-11-12_14h25.04.868,untitled,2023.2.3,60.08770401081217,2023-11-12 14h40.00.644612 +0800,
8,test2/rightstar.PNG,space,,,,,,,,,0,0,0,1,,,,,259.3662558999931,,,,,,,,,,,,,,,,,,,,,,,,,,,,,,,,,,,,,,,,,,,,,,,,,,,,,,,,,,,,,,,,,,,,,,,,,,,259.29809789999854,259.3662558999931,259.8105227999913,259.81053429999156,260.29440369999793,260.74303569999756,260.5777428000001,260.577755899998,261.90979259999585,261.90979259999585,262.3785690999939,right,0.4547394999972312,None,,,,,,,,,,,,,,,,,,,,,,,,,,,,,,,,,,011,001,2023-11-12_14h25.04.868,untitled,2023.2.3,60.08770401081217,2023-11-12 14h40.00.644612 +0800,
2,test2/leftstar.PNG,left,,,,,,,,,0,1,1,4,,,,,262.4443428999948,,,,,,,,,,,,,,,,,,,,,,,,,,,,,,,,,,,,,,,,,,,,,,,,,,,,,,,,,,,,,,,,,,,,,,,,,,,262.379339799998,262.4443428999948,262.89392529999895,262.89393689999997,263.39457389999006,,263.69485259999055,263.69486360000155,264.99291190000076,264.99291190000076,265.3272189999989,left,0.32932079999591224,None,,,,,,,,,,,,,,,,,,,,,,,,,,,,,,,,,,011,001,2023-11-12_14h25.04.868,untitled,2023.2.3,60.08770401081217,2023-11-12 14h40.00.644612 +0800,
1,test2/blank.PNG,space,,,,,,,,,0,2,2,2,,,,,265.4047767000011,,,,,,,,,,,,,,,,,,,,,,,,,,,,,,,,,,,,,,,,,,,,,,,,,,,,,,,,,,,,,,,,,,,,,,,,,,,265.32753549999325,265.4047767000011,265.8441687000013,265.8441792999947,266.3274451999896,266.64304149999225,266.61062929999025,266.61064039998746,268.03124569999636,268.03124569999636,270.277837799993,space,2.240216499994858,None,268.84370769999805,,,,,,,,,,,,,,,,,,,,,,,,,,,,,,,,,011,001,2023-11-12_14h25.04.868,untitled,2023.2.3,60.08770401081217,2023-11-12 14h40.00.644612 +0800,
1,test2/leftstar.PNG,left,,,,,,,,,0,3,3,0,,,,,270.34293400000024,,,,,,,,,,,,,,,,,,,,,,,,,,,,,,,,,,,,,,,,,,,,,,,,,,,,,,,,,,,,,,,,,,,,,,,,,,,270.2781573999964,270.34293400000024,270.7935836999968,270.7935957000009,271.2778304999956,271.7240078999894,271.5616243999975,271.56163769999694,272.9362242999923,272.9362242999923,273.39457609999226,left,0.44299390001106076,None,,,,,,,,,,,,,,,,,,,,,,,,,,,,,,,,,,011,001,2023-11-12_14h25.04.868,untitled,2023.2.3,60.08770401081217,2023-11-12 14h40.00.644612 +0800,
8,test2/rightstar.PNG,space,,,,,,,,,0,4,4,5,,,,,273.4762749999936,,,,,,,,,,,,,,,,,,,,,,,,,,,,,,,,,,,,,,,,,,,,,,,,,,,,,,,,,,,,,,,,,,,,,,,,,,,273.39489820000017,273.4762749999936,273.9103624999989,273.9103737999976,274.3936205999926,274.8619727999903,274.67716310000105,274.67717640000046,275.9928665999905,275.9928665999905,276.27894549998746,space,0.2772759999934351,None,,,,,,,,,,,,,,,,,,,,,,,,,,,,,,,,,,011,001,2023-11-12_14h25.04.868,untitled,2023.2.3,60.08770401081217,2023-11-12 14h40.00.644612 +0800,
9,test2/rightstar.PNG,space,,,,,,,,,0,5,5,3,,,,,276.3471275999909,,,,,,,,,,,,,,,,,,,,,,,,,,,,,,,,,,,,,,,,,,,,,,,,,,,,,,,,,,,,,,,,,,,,,,,,,,,276.2797947999934,276.3471275999909,276.79395969999314,276.79397129999415,277.29392159999406,277.7329364999896,277.57712479999464,277.57713520000107,278.8931190000003,278.8931190000003,279.4606547000003,space,0.5553061999962665,None,,,,,,,,,,,,,,,,,,,,,,,,,,,,,,,,,,011,001,2023-11-12_14h25.04.868,untitled,2023.2.3,60.08770401081217,2023-11-12 14h40.00.644612 +0800,
,,,,,,,,,,,,,,,,,,,,,,,,,,,,,,,,,,,,,,,,,,,,,,,,,,,,,,,,,,,,,,,,,,,,,,,,,,,,,,,,,,,,,,,,,,,,,,,,,,,,,,,,,,,,,279.46089999999094,279.47646330000134,279.47646330000134,280.4764235999901,283.34453499999654,space,3.866702500003157,None,,,,,,,,,,,,,,,,,,,,,,,,,011,001,2023-11-12_14h25.04.868,untitled,2023.2.3,60.08770401081217,2023-11-12 14h40.00.644612 +0800,
,,,,,,,,,,,,,,,,,,,,,,,,,,,,,,,,,,,,,,,,,,,,,,,,,,,,,,,,,,,,,,,,,,,,,,,,,,,,,,,,,,,,,,,,,,,,,,,,,,,,,,,,,,,,,,,,,,,,,283.34456209999917,283.3599486999883,283.3599486999883,284.3613594999915,286.96053219999885,space,3.5977805000002263,None,,,,,,,,,,,,,,,,,011,001,2023-11-12_14h25.04.868,untitled,2023.2.3,60.08770401081217,2023-11-12 14h40.00.644612 +0800,
1,condition_2/leftstar.PNG,left,,,,,,,,,,,,,0,0,0,16,287.03734859998804,,,,,,,,,,,,,,,,,,,,,,,,,,,,,,,,,,,,,,,,,,,,,,,,,,,,,,,,,,,,,,,,,,,,,,,,,,,,,,,,,,,,,,,,,,,,,,,,,,,,,,,,,,286.9661672999937,287.03734859998804,287.4610451999906,287.4610593999969,287.96044289998827,288.4095415999909,288.24378199999046,288.2437925999984,289.57659669998975,289.57659669998975,290.02749719998974,left,1,0.44530370000575203,None,,011,001,2023-11-12_14h25.04.868,untitled,2023.2.3,60.08770401081217,2023-11-12 14h40.00.644612 +0800,
2,condition_2/leftstar.PNG,left,,,,,,,,,,,,,0,1,1,1,290.0981117999909,,,,,,,,,,,,,,,,,,,,,,,,,,,,,,,,,,,,,,,,,,,,,,,,,,,,,,,,,,,,,,,,,,,,,,,,,,,,,,,,,,,,,,,,,,,,,,,,,,,,,,,,,,290.02803829999175,290.0981117999909,290.54338769998867,290.54340019999654,291.0429845999897,291.49959449999733,291.3276138999936,291.3276449999976,292.6429758000013,292.6429758000013,292.9770346000005,left,1,0.32881110000016633,None,,011,001,2023-11-12_14h25.04.868,untitled,2023.2.3,60.08770401081217,2023-11-12 14h40.00.644612 +0800,
8,condition_2/leftstar.PNG,space,,,,,,,,,,,,,0,2,2,18,293.0495962999994,,,,,,,,,,,,,,,,,,,,,,,,,,,,,,,,,,,,,,,,,,,,,,,,,,,,,,,,,,,,,,,,,,,,,,,,,,,,,,,,,,,,,,,,,,,,,,,,,,,,,,,,,,292.97742349999317,293.0495962999994,293.4936764000013,293.4936873999977,293.9764351999911,294.41463379999914,294.26059369998984,294.2606034999917,295.57635319999827,295.57635319999827,295.87755799999286,space,1,0.29083499999251217,None,,011,001,2023-11-12_14h25.04.868,untitled,2023.2.3,60.08770401081217,2023-11-12 14h40.00.644612 +0800,
1,condition_2/rightstar.PNG,right,,,,,,,,,,,,,0,3,3,4,295.96090459999687,,,,,,,,,,,,,,,,,,,,,,,,,,,,,,,,,,,,,,,,,,,,,,,,,,,,,,,,,,,,,,,,,,,,,,,,,,,,,,,,,,,,,,,,,,,,,,,,,,,,,,,,,,295.8779355000006,295.96090459999687,296.3934806999896,296.3934925999929,296.8768677999906,297.34202070000174,297.1619798999891,297.16199079999933,298.47639389999676,298.47639389999676,299.87746449999395,right,1,1.3934500999894226,None,299.2768864999962,011,001,2023-11-12_14h25.04.868,untitled,2023.2.3,60.08770401081217,2023-11-12 14h40.00.644612 +0800,
9,condition_2/rightstar.PNG,space,,,,,,,,,,,,,0,4,4,15,299.9466279999906,,,,,,,,,,,,,,,,,,,,,,,,,,,,,,,,,,,,,,,,,,,,,,,,,,,,,,,,,,,,,,,,,,,,,,,,,,,,,,,,,,,,,,,,,,,,,,,,,,,,,,,,,,299.87802340000053,299.9466279999906,300.3780352999893,300.37804919999326,300.89398529999016,301.3429979999928,301.17728659999557,301.1772983999981,302.4775459999946,302.4775459999946,302.9603744999913,space,1,0.47157110000262037,None,,011,001,2023-11-12_14h25.04.868,untitled,2023.2.3,60.08770401081217,2023-11-12 14h40.00.644612 +0800,
2,condition_2/rightstar.PNG,right,,,,,,,,,,,,,0,5,5,13,303.03188399999635,,,,,,,,,,,,,,,,,,,,,,,,,,,,,,,,,,,,,,,,,,,,,,,,,,,,,,,,,,,,,,,,,,,,,,,,,,,,,,,,,,,,,,,,,,,,,,,,,,,,,,,,,,302.9607274000009,303.03188399999635,303.4770017999981,303.4770296999923,303.9600345999934,304.40546979999635,304.24325689999387,304.243269300001,305.56115470000077,305.56115470000077,305.9942265999998,right,1,0.42600239999592304,None,,011,001,2023-11-12_14h25.04.868,untitled,2023.2.3,60.08770401081217,2023-11-12 14h40.00.644612 +0800,
9,condition_2/rightstar.PNG,space,,,,,,,,,,,,,0,6,6,7,306.07113440000103,,,,,,,,,,,,,,,,,,,,,,,,,,,,,,,,,,,,,,,,,,,,,,,,,,,,,,,,,,,,,,,,,,,,,,,,,,,,,,,,,,,,,,,,,,,,,,,,,,,,,,,,,,305.99460229999386,306.07113440000103,306.5103948999895,306.51040689999354,307.0103181000013,,307.29468839999754,307.29470220000076,308.60988499999803,308.60988499999803,308.89463819999946,space,1,0.28306840000732336,None,,011,001,2023-11-12_14h25.04.868,untitled,2023.2.3,60.08770401081217,2023-11-12 14h40.00.644612 +0800,
9,condition_2/leftstar.PNG,space,,,,,,,,,,,,,0,7,7,19,308.9700174999889,,,,,,,,,,,,,,,,,,,,,,,,,,,,,,,,,,,,,,,,,,,,,,,,,,,,,,,,,,,,,,,,,,,,,,,,,,,,,,,,,,,,,,,,,,,,,,,,,,,,,,,,,,308.8950191999902,308.9700174999889,309.4102271999873,309.41023829999904,309.9101689999952,310.36313079998945,310.19425899999624,310.1942781999969,311.50966929999413,311.50966929999413,311.8109066999896,space,1,0.2868839000002481,None,,011,001,2023-11-12_14h25.04.868,untitled,2023.2.3,60.08770401081217,2023-11-12 14h40.00.644612 +0800,
1,condition_2/blank.PNG,space,,,,,,,,,,,,,0,8,8,8,311.8843221999996,,,,,,,,,,,,,,,,,,,,,,,,,,,,,,,,,,,,,,,,,,,,,,,,,,,,,,,,,,,,,,,,,,,,,,,,,,,,,,,,,,,,,,,,,,,,,,,,,,,,,,,,,,311.81129189999774,311.8843221999996,312.32804949999263,312.3280608999921,312.82691969998996,313.1603364999901,313.1106851999939,313.1106967999949,314.5029973999917,314.5029973999917,315.96551439999894,space,1,1.443066199994064,None,315.3109000999975,011,001,2023-11-12_14h25.04.868,untitled,2023.2.3,60.08770401081217,2023-11-12 14h40.00.644612 +0800,
9,condition_2/leftstar.PNG,space,,,,,,,,,,,,,0,9,9,3,316.0341228999896,,,,,,,,,,,,,,,,,,,,,,,,,,,,,,,,,,,,,,,,,,,,,,,,,,,,,,,,,,,,,,,,,,,,,,,,,,,,,,,,,,,,,,,,,,,,,,,,,,,,,,,,,,315.96594899999036,316.0341228999896,316.4787800999911,316.47879219999595,316.97725029999856,317.4373811999976,317.2608135999908,317.2608261999994,318.6222201999917,318.6222201999917,319.46038799999224,space,1,0.8338282999902731,None,319.42708599999605,011,001,2023-11-12_14h25.04.868,untitled,2023.2.3,60.08770401081217,2023-11-12 14h40.00.644612 +0800,
8,condition_2/rightstar.PNG,space,,,,,,,,,,,,,0,10,10,14,319.5288553999999,,,,,,,,,,,,,,,,,,,,,,,,,,,,,,,,,,,,,,,,,,,,,,,,,,,,,,,,,,,,,,,,,,,,,,,,,,,,,,,,,,,,,,,,,,,,,,,,,,,,,,,,,,319.4607682999922,319.5288553999999,319.97636919999786,319.97638110000116,320.4599073999998,320.9196360999922,320.7434324999922,320.743450199996,322.0598078999901,322.0598078999901,322.44439469999634,space,1,0.37676749999809545,None,,011,001,2023-11-12_14h25.04.868,untitled,2023.2.3,60.08770401081217,2023-11-12 14h40.00.644612 +0800,
8,condition_2/rightstar.PNG,space,,,,,,,,,,,,,0,11,11,23,322.5142979999946,,,,,,,,,,,,,,,,,,,,,,,,,,,,,,,,,,,,,,,,,,,,,,,,,,,,,,,,,,,,,,,,,,,,,,,,,,,,,,,,,,,,,,,,,,,,,,,,,,,,,,,,,,322.4448274999886,322.5142979999946,322.9605262999976,322.9605376999971,323.4446304999874,323.8812218999956,323.72758609999437,323.7275962999993,325.05963879999763,325.05963879999763,325.4613146999909,space,1,0.3955178000032902,None,,011,001,2023-11-12_14h25.04.868,untitled,2023.2.3,60.08770401081217,2023-11-12 14h40.00.644612 +0800,
8,condition_2/rightstar.PNG,space,,,,,,,,,,,,,0,12,12,6,325.5305304999929,,,,,,,,,,,,,,,,,,,,,,,,,,,,,,,,,,,,,,,,,,,,,,,,,,,,,,,,,,,,,,,,,,,,,,,,,,,,,,,,,,,,,,,,,,,,,,,,,,,,,,,,,,325.46169169999484,325.5305304999929,325.9769968999899,325.9770084999909,326.4602257999941,326.9097466999956,326.7440649999917,326.7440759999881,328.07646899999236,328.07646899999236,328.3609277999931,space,1,0.26786320000246633,None,,011,001,2023-11-12_14h25.04.868,untitled,2023.2.3,60.08770401081217,2023-11-12 14h40.00.644612 +0800,
9,condition_2/leftstar.PNG,space,,,,,,,,,,,,,0,13,13,24,328.4279416999925,,,,,,,,,,,,,,,,,,,,,,,,,,,,,,,,,,,,,,,,,,,,,,,,,,,,,,,,,,,,,,,,,,,,,,,,,,,,,,,,,,,,,,,,,,,,,,,,,,,,,,,,,,328.36138609999034,328.4279416999925,328.8764436999918,328.8764567999897,329.3614061999979,329.8012338999979,329.6444677999971,329.64448239999183,330.97636459999194,330.97636459999194,331.4107959999965,space,1,0.4232404999929713,None,,011,001,2023-11-12_14h25.04.868,untitled,2023.2.3,60.08770401081217,2023-11-12 14h40.00.644612 +0800,
1,condition_2/rightstar.PNG,right,,,,,,,,,,,,,0,14,14,21,331.4831821999978,,,,,,,,,,,,,,,,,,,,,,,,,,,,,,,,,,,,,,,,,,,,,,,,,,,,,,,,,,,,,,,,,,,,,,,,,,,,,,,,,,,,,,,,,,,,,,,,,,,,,,,,,,331.41115179999906,331.4831821999978,331.92775769998843,331.92776959999173,332.4102772999904,332.85919069999363,332.6937231999909,332.6937353999965,334.00981189998856,334.00981189998856,334.2618499999953,right,1,0.246449099999154,None,,011,001,2023-11-12_14h25.04.868,untitled,2023.2.3,60.08770401081217,2023-11-12 14h40.00.644612 +0800,
2,condition_2/blank.PNG,space,,,,,,,,,,,,,0,15,15,20,334.33006439999735,,,,,,,,,,,,,,,,,,,,,,,,,,,,,,,,,,,,,,,,,,,,,,,,,,,,,,,,,,,,,,,,,,,,,,,,,,,,,,,,,,,,,,,,,,,,,,,,,,,,,,,,,,334.2622440999985,334.33006439999735,334.77683779998915,334.7768490000017,335.2770065999939,335.5929602999968,335.56082199999946,335.5608355000004,336.97442669999145,336.97442669999145,337.49457979999715,space,1,0.5186744999955408,None,,011,001,2023-11-12_14h25.04.868,untitled,2023.2.3,60.08770401081217,2023-11-12 14h40.00.644612 +0800,
2,condition_2/leftstar.PNG,left,,,,,,,,,,,,,0,16,16,17,337.565333999999,,,,,,,,,,,,,,,,,,,,,,,,,,,,,,,,,,,,,,,,,,,,,,,,,,,,,,,,,,,,,,,,,,,,,,,,,,,,,,,,,,,,,,,,,,,,,,,,,,,,,,,,,,337.4950184999907,337.565333999999,338.0101929999946,338.01020449999487,338.4935809999879,338.94307539999136,338.77774299999874,338.77775529999053,340.1601438999933,340.1601438999933,340.4775523999997,left,1,0.3091095999989193,None,,011,001,2023-11-12_14h25.04.868,untitled,2023.2.3,60.08770401081217,2023-11-12 14h40.00.644612 +0800,
9,condition_2/blank.PNG,space,,,,,,,,,,,,,0,17,17,11,340.54405129999213,,,,,,,,,,,,,,,,,,,,,,,,,,,,,,,,,,,,,,,,,,,,,,,,,,,,,,,,,,,,,,,,,,,,,,,,,,,,,,,,,,,,,,,,,,,,,,,,,,,,,,,,,,340.47796799999196,340.54405129999213,340.9931501999963,340.9931627999904,341.4768664000003,341.79288039999665,341.7599705999892,341.75998170000094,343.1931719999993,343.1931719999993,343.6769273999962,space,1,0.4723204000038095,None,,011,001,2023-11-12_14h25.04.868,untitled,2023.2.3,60.08770401081217,2023-11-12 14h40.00.644612 +0800,
1,condition_2/rightstar.PNG,right,,,,,,,,,,,,,0,18,18,12,343.74246459999995,,,,,,,,,,,,,,,,,,,,,,,,,,,,,,,,,,,,,,,,,,,,,,,,,,,,,,,,,,,,,,,,,,,,,,,,,,,,,,,,,,,,,,,,,,,,,,,,,,,,,,,,,,343.67729889998736,343.74246459999995,344.19314309999754,344.19315369999094,344.6767189999955,345.12040069999057,344.96167959999,344.9617026999913,346.3216093999945,346.3216093999945,346.595513399996,right,1,0.2699675999901956,None,,011,001,2023-11-12_14h25.04.868,untitled,2023.2.3,60.08770401081217,2023-11-12 14h40.00.644612 +0800,
2,condition_2/leftstar.PNG,left,,,,,,,,,,,,,0,19,19,22,346.665791499996,,,,,,,,,,,,,,,,,,,,,,,,,,,,,,,,,,,,,,,,,,,,,,,,,,,,,,,,,,,,,,,,,,,,,,,,,,,,,,,,,,,,,,,,,,,,,,,,,,,,,,,,,,346.5959565999947,346.665791499996,347.1096450999903,347.1096561999875,347.60963130000164,348.05104059999576,347.8933408999874,347.8933537999983,349.20985989998735,349.20985989998735,349.5110099000012,left,1,0.289454099998693,None,,011,001,2023-11-12_14h25.04.868,untitled,2023.2.3,60.08770401081217,2023-11-12 14h40.00.644612 +0800,
8,condition_2/leftstar.PNG,space,,,,,,,,,,,,,0,20,20,2,349.59365080000134,,,,,,,,,,,,,,,,,,,,,,,,,,,,,,,,,,,,,,,,,,,,,,,,,,,,,,,,,,,,,,,,,,,,,,,,,,,,,,,,,,,,,,,,,,,,,,,,,,,,,,,,,,349.5114234999928,349.59365080000134,350.02673479999066,350.0267465999932,350.510114299992,350.9545754999999,350.7945228999888,350.7945342999883,352.12652009999147,352.12652009999147,352.3950995999912,space,1,0.25372610001068097,None,,011,001,2023-11-12_14h25.04.868,untitled,2023.2.3,60.08770401081217,2023-11-12 14h40.00.644612 +0800,
8,condition_2/blank.PNG,space,,,,,,,,,,,,,0,21,21,10,352.46377930000017,,,,,,,,,,,,,,,,,,,,,,,,,,,,,,,,,,,,,,,,,,,,,,,,,,,,,,,,,,,,,,,,,,,,,,,,,,,,,,,,,,,,,,,,,,,,,,,,,,,,,,,,,,352.39564569998765,352.46377930000017,352.91034239999135,352.91035399999237,353.41084209999826,353.74442009998893,353.69487149998895,353.69488389999606,355.1057502999902,355.1057502999902,356.86170409999613,space,1,1.745116300007794,0.008835000000544824,355.91023329999007,011,001,2023-11-12_14h25.04.868,untitled,2023.2.3,60.08770401081217,2023-11-12 14h40.00.644612 +0800,
1,condition_2/leftstar.PNG,left,,,,,,,,,,,,,0,22,22,0,356.93160939999507,,,,,,,,,,,,,,,,,,,,,,,,,,,,,,,,,,,,,,,,,,,,,,,,,,,,,,,,,,,,,,,,,,,,,,,,,,,,,,,,,,,,,,,,,,,,,,,,,,,,,,,,,,356.86209149999195,356.93160939999507,357.37790019999375,357.3779130999901,357.87704120000126,358.32676029999857,358.1605426999886,358.1605531999958,359.5095888999931,359.5095888999931,359.89446199999657,left,1,0.3717028999963077,None,,011,001,2023-11-12_14h25.04.868,untitled,2023.2.3,60.08770401081217,2023-11-12 14h40.00.644612 +0800,
2,condition_2/blank.PNG,space,,,,,,,,,,,,,0,23,23,9,359.96759400000155,,,,,,,,,,,,,,,,,,,,,,,,,,,,,,,,,,,,,,,,,,,,,,,,,,,,,,,,,,,,,,,,,,,,,,,,,,,,,,,,,,,,,,,,,,,,,,,,,,,,,,,,,,359.89500509999925,359.96759400000155,360.41058329999214,360.41059600000153,360.91088329999184,361.2263876999932,361.193603599997,361.193614799995,362.5930764999939,362.5930764999939,364.41108589999203,space,1,1.8049016000004485,None,363.39323709999735,011,001,2023-11-12_14h25.04.868,untitled,2023.2.3,60.08770401081217,2023-11-12 14h40.00.644612 +0800,
2,condition_2/rightstar.PNG,left,,,,,,,,,,,,,0,24,24,5,364.4793561999977,,,,,,,,,,,,,,,,,,,,,,,,,,,,,,,,,,,,,,,,,,,,,,,,,,,,,,,,,,,,,,,,,,,,,,,,,,,,,,,,,,,,,,,,,,,,,,,,,,,,,,,,,,364.4114883000002,364.4793561999977,364.9284476999892,364.92846109998936,365.4108932999952,365.86021469999105,365.69402889999037,365.6940399999876,367.05616599999485,367.05616599999485,370.0444886999903,right,0,2.9779902000009315,None,367.8607185000001,011,001,2023-11-12_14h25.04.868,untitled,2023.2.3,60.08770401081217,2023-11-12 14h40.00.644612 +0800,
1,condition_2/rightstar.PNG,right,,,,,,,,,,,,,1,0,25,12,370.1278079999902,,,,,,,,,,,,,,,,,,,,,,,,,,,,,,,,,,,,,,,,,,,,,,,,,,,,,,,,,,,,,,,,,,,,,,,,,,,,,,,,,,,,,,,,,,,,,,,,,,,,,,,,,,370.04492149999714,370.1278079999902,370.55990579999343,370.5599288999947,371.0601142999949,371.51134149999416,371.3449787999998,371.3450040999887,372.65959049999947,372.65959049999947,373.02688629999466,right,1,0.3519270999968285,None,,011,001,2023-11-12_14h25.04.868,untitled,2023.2.3,60.08770401081217,2023-11-12 14h40.00.644612 +0800,
2,condition_2/leftstar.PNG,left,,,,,,,,,,,,,1,1,26,22,373.10145199998806,,,,,,,,,,,,,,,,,,,,,,,,,,,,,,,,,,,,,,,,,,,,,,,,,,,,,,,,,,,,,,,,,,,,,,,,,,,,,,,,,,,,,,,,,,,,,,,,,,,,,,,,,,373.0272389999882,373.10145199998806,373.54443059999903,373.54444359999616,374.0264113000012,374.51053970000066,374.30991820000054,374.30993019999005,375.6264564000012,375.6264564000012,376.1106613999873,left,1,0.47516290000930894,None,,011,001,2023-11-12_14h25.04.868,untitled,2023.2.3,60.08770401081217,2023-11-12 14h40.00.644612 +0800,
9,condition_2/rightstar.PNG,space,,,,,,,,,,,,,1,2,27,15,376.1847778999945,,,,,,,,,,,,,,,,,,,,,,,,,,,,,,,,,,,,,,,,,,,,,,,,,,,,,,,,,,,,,,,,,,,,,,,,,,,,,,,,,,,,,,,,,,,,,,,,,,,,,,,,,,376.11110270000063,376.1847778999945,376.6270072999905,376.6270210999937,377.1098739000008,377.5770818999881,377.3944135999918,377.39442459998827,378.7263269999967,378.7263269999967,379.0777864999982,space,1,0.3465383999864571,None,,011,001,2023-11-12_14h25.04.868,untitled,2023.2.3,60.08770401081217,2023-11-12 14h40.00.644612 +0800,
9,condition_2/rightstar.PNG,space,,,,,,,,,,,,,1,3,28,7,379.1515863999957,,,,,,,,,,,,,,,,,,,,,,,,,,,,,,,,,,,,,,,,,,,,,,,,,,,,,,,,,,,,,,,,,,,,,,,,,,,,,,,,,,,,,,,,,,,,,,,,,,,,,,,,,,379.07840469999064,379.1515863999957,379.59326619999774,379.5932802999887,380.0929497999896,380.5770205000008,380.3770038999937,380.37701399999787,381.6929794999887,381.6929794999887,381.9605814999959,space,1,0.25263689999701455,None,,011,001,2023-11-12_14h25.04.868,untitled,2023.2.3,60.08770401081217,2023-11-12 14h40.00.644612 +0800,
2,condition_2/rightstar.PNG,left,,,,,,,,,,,,,1,4,29,5,382.0430207999889,,,,,,,,,,,,,,,,,,,,,,,,,,,,,,,,,,,,,,,,,,,,,,,,,,,,,,,,,,,,,,,,,,,,,,,,,,,,,,,,,,,,,,,,,,,,,,,,,,,,,,,,,,381.96095689998765,382.0430207999889,382.4770528999943,382.47706419999304,382.9595405,383.4272151999903,383.2431855999894,383.2431945999997,384.5764549000014,384.5764549000014,384.97688969998853,right,0,0.3901781999884406,None,,011,001,2023-11-12_14h25.04.868,untitled,2023.2.3,60.08770401081217,2023-11-12 14h40.00.644612 +0800,
8,condition_2/leftstar.PNG,space,,,,,,,,,,,,,1,5,30,18,385.0595925999951,,,,,,,,,,,,,,,,,,,,,,,,,,,,,,,,,,,,,,,,,,,,,,,,,,,,,,,,,,,,,,,,,,,,,,,,,,,,,,,,,,,,,,,,,,,,,,,,,,,,,,,,,,384.97732079999696,385.0595925999951,385.4940668999916,385.4940795000002,385.9762582999974,386.4440750999929,386.2599479999917,386.2599593999912,387.5760338999971,387.5760338999971,387.92725919999066,space,1,0.33971160001237877,None,,011,001,2023-11-12_14h25.04.868,untitled,2023.2.3,60.08770401081217,2023-11-12 14h40.00.644612 +0800,
1,condition_2/rightstar.PNG,right,,,,,,,,,,,,,1,6,31,21,388.00972859999456,,,,,,,,,,,,,,,,,,,,,,,,,,,,,,,,,,,,,,,,,,,,,,,,,,,,,,,,,,,,,,,,,,,,,,,,,,,,,,,,,,,,,,,,,,,,,,,,,,,,,,,,,,387.92764599999646,388.00972859999456,388.4433896999981,388.4434028999967,388.92662459998974,389.3938705999899,389.2104791999882,389.21048999999766,390.5262315,390.5262315,391.0767380999896,right,1,0.5428499999979977,None,,011,001,2023-11-12_14h25.04.868,untitled,2023.2.3,60.08770401081217,2023-11-12 14h40.00.644612 +0800,
2,condition_2/rightstar.PNG,right,,,,,,,,,,,,,1,7,32,13,391.1428940999904,,,,,,,,,,,,,,,,,,,,,,,,,,,,,,,,,,,,,,,,,,,,,,,,,,,,,,,,,,,,,,,,,,,,,,,,,,,,,,,,,,,,,,,,,,,,,,,,,,,,,,,,,,391.0772824000014,391.1428940999904,391.59406019999005,391.5940765999985,392.07637879998947,392.5601331999933,392.3604204000003,392.3604326999921,393.67675689999305,393.67675689999305,394.0109764999943,right,1,0.31684809998841956,None,,011,001,2023-11-12_14h25.04.868,untitled,2023.2.3,60.08770401081217,2023-11-12 14h40.00.644612 +0800,
9,condition_2/leftstar.PNG,space,,,,,,,,,,,,,1,8,33,19,394.09812039999815,,,,,,,,,,,,,,,,,,,,,,,,,,,,,,,,,,,,,,,,,,,,,,,,,,,,,,,,,,,,,,,,,,,,,,,,,,,,,,,,,,,,,,,,,,,,,,,,,,,,,,,,,,394.0113355999929,394.09812039999815,394.5269668999972,394.52697890000127,395.02680529998906,395.49364179999975,395.31116589999874,395.31118479999714,396.6101299000002,396.6101299000002,396.8779547999875,space,1,0.25640530000964645,None,,011,001,2023-11-12_14h25.04.868,untitled,2023.2.3,60.08770401081217,2023-11-12 14h40.00.644612 +0800,
9,condition_2/leftstar.PNG,space,,,,,,,,,,,,,1,9,34,24,396.9597410999995,,,,,,,,,,,,,,,,,,,,,,,,,,,,,,,,,,,,,,,,,,,,,,,,,,,,,,,,,,,,,,,,,,,,,,,,,,,,,,,,,,,,,,,,,,,,,,,,,,,,,,,,,,396.87841169998865,396.9597410999995,397.39347209999687,397.39349249999213,397.876236600001,398.34385759998986,398.1600053000002,398.1600163999974,399.49261399998795,399.49261399998795,399.8441787999909,space,1,0.3345195000001695,None,,011,001,2023-11-12_14h25.04.868,untitled,2023.2.3,60.08770401081217,2023-11-12 14h40.00.644612 +0800,
1,condition_2/leftstar.PNG,left,,,,,,,,,,,,,1,10,35,0,399.9262759999983,,,,,,,,,,,,,,,,,,,,,,,,,,,,,,,,,,,,,,,,,,,,,,,,,,,,,,,,,,,,,,,,,,,,,,,,,,,,,,,,,,,,,,,,,,,,,,,,,,,,,,,,,,399.84472090000054,399.9262759999983,400.36121959998854,400.3612308999873,400.84380409998994,401.32677780000085,401.1270783999935,401.1270918999944,402.4432746999955,402.4432746999955,402.8944094999897,left,1,0.4399572999973316,None,,011,001,2023-11-12_14h25.04.868,untitled,2023.2.3,60.08770401081217,2023-11-12 14h40.00.644612 +0800,
2,condition_2/leftstar.PNG,left,,,,,,,,,,,,,1,11,36,17,402.96943420000025,,,,,,,,,,,,,,,,,,,,,,,,,,,,,,,,,,,,,,,,,,,,,,,,,,,,,,,,,,,,,,,,,,,,,,,,,,,,,,,,,,,,,,,,,,,,,,,,,,,,,,,,,,402.894913799988,402.96943420000025,403.41083689998777,403.4108481000003,403.9128950000013,,404.21035599999595,404.21036820000154,405.4936483999918,405.4936483999918,405.84391640000104,left,1,0.34208469999430235,None,,011,001,2023-11-12_14h25.04.868,untitled,2023.2.3,60.08770401081217,2023-11-12 14h40.00.644612 +0800,
1,condition_2/rightstar.PNG,right,,,,,,,,,,,,,1,12,37,4,405.9270877999952,,,,,,,,,,,,,,,,,,,,,,,,,,,,,,,,,,,,,,,,,,,,,,,,,,,,,,,,,,,,,,,,,,,,,,,,,,,,,,,,,,,,,,,,,,,,,,,,,,,,,,,,,,405.8444982999936,405.9270877999952,406.36045609999564,406.36046909999277,406.8433127999888,407.3104810999939,407.1280693000008,407.12808049999876,408.4429398999928,408.4429398999928,408.827950699997,right,1,0.3778467000083765,None,,011,001,2023-11-12_14h25.04.868,untitled,2023.2.3,60.08770401081217,2023-11-12 14h40.00.644612 +0800,
1,condition_2/blank.PNG,space,,,,,,,,,,,,,1,13,38,8,408.8925251999899,,,,,,,,,,,,,,,,,,,,,,,,,,,,,,,,,,,,,,,,,,,,,,,,,,,,,,,,,,,,,,,,,,,,,,,,,,,,,,,,,,,,,,,,,,,,,,,,,,,,,,,,,,408.82832970000163,408.8925251999899,409.3440494999959,409.34407599999395,409.8430637999991,410.1577079999988,410.12669999999343,410.1267126999883,411.5208608999965,411.5208608999965,412.8770172999939,space,1,1.3425611999991816,None,412.32685669999046,011,001,2023-11-12_14h25.04.868,untitled,2023.2.3,60.08770401081217,2023-11-12 14h40.00.644612 +0800,
8,condition_2/rightstar.PNG,space,,,,,,,,,,,,,1,14,39,23,412.9429395999905,,,,,,,,,,,,,,,,,,,,,,,,,,,,,,,,,,,,,,,,,,,,,,,,,,,,,,,,,,,,,,,,,,,,,,,,,,,,,,,,,,,,,,,,,,,,,,,,,,,,,,,,,,412.87739209999563,412.9429395999905,413.3773322999914,413.37734329998784,413.87683509998897,414.3435832999967,414.16032979999727,414.16033929999685,415.5195238999877,415.5195238999877,415.96093539999856,right,0,0.43314100000134204,None,,011,001,2023-11-12_14h25.04.868,untitled,2023.2.3,60.08770401081217,2023-11-12 14h40.00.644612 +0800,
2,condition_2/blank.PNG,space,,,,,,,,,,,,,1,15,40,20,416.0286897999904,,,,,,,,,,,,,,,,,,,,,,,,,,,,,,,,,,,,,,,,,,,,,,,,,,,,,,,,,,,,,,,,,,,,,,,,,,,,,,,,,,,,,,,,,,,,,,,,,,,,,,,,,,415.96136259999184,416.0286897999904,416.4771974999894,416.47720899998967,416.9766807999986,417.2919932999939,417.2605140999949,417.26053479999246,418.7431169999909,418.7431169999909,420.1937942999939,space,1,1.4378802999999607,None,419.5428533999948,011,001,2023-11-12_14h25.04.868,untitled,2023.2.3,60.08770401081217,2023-11-12 14h40.00.644612 +0800,
8,condition_2/blank.PNG,space,,,,,,,,,,,,,1,16,41,10,420.2769222999923,,,,,,,,,,,,,,,,,,,,,,,,,,,,,,,,,,,,,,,,,,,,,,,,,,,,,,,,,,,,,,,,,,,,,,,,,,,,,,,,,,,,,,,,,,,,,,,,,,,,,,,,,,420.1942143999913,420.2769222999923,420.7095169999957,420.7095280999929,421.2099911999976,421.52523269999074,421.49362239999755,421.4936331999925,422.79294119999395,422.79294119999395,423.2607022999873,space,1,0.45449120001285337,None,,011,001,2023-11-12_14h25.04.868,untitled,2023.2.3,60.08770401081217,2023-11-12 14h40.00.644612 +0800,
2,condition_2/leftstar.PNG,left,,,,,,,,,,,,,1,17,42,1,423.3268088999903,,,,,,,,,,,,,,,,,,,,,,,,,,,,,,,,,,,,,,,,,,,,,,,,,,,,,,,,,,,,,,,,,,,,,,,,,,,,,,,,,,,,,,,,,,,,,,,,,,,,,,,,,,423.2610711999878,423.3268088999903,423.77628799999366,423.77630019999924,424.27610959998856,424.7616139999882,424.55973609999637,424.5597478999989,425.91387530000065,425.91387530000065,426.29359839999233,left,1,0.37119380000513047,None,,011,001,2023-11-12_14h25.04.868,untitled,2023.2.3,60.08770401081217,2023-11-12 14h40.00.644612 +0800,
1,condition_2/leftstar.PNG,left,,,,,,,,,,,,,1,18,43,16,426.3687566000008,,,,,,,,,,,,,,,,,,,,,,,,,,,,,,,,,,,,,,,,,,,,,,,,,,,,,,,,,,,,,,,,,,,,,,,,,,,,,,,,,,,,,,,,,,,,,,,,,,,,,,,,,,426.29395169999043,426.3687566000008,426.80948119999084,426.8094931999949,427.2927648999903,427.77673219999997,427.57695019998937,427.5769607999973,428.89305289999174,428.89305289999174,429.210771699989,left,1,0.3077530000009574,None,,011,001,2023-11-12_14h25.04.868,untitled,2023.2.3,60.08770401081217,2023-11-12 14h40.00.644612 +0800,
9,condition_2/blank.PNG,space,,,,,,,,,,,,,1,19,44,11,429.28320779999194,,,,,,,,,,,,,,,,,,,,,,,,,,,,,,,,,,,,,,,,,,,,,,,,,,,,,,,,,,,,,,,,,,,,,,,,,,,,,,,,,,,,,,,,,,,,,,,,,,,,,,,,,,429.21118569999817,429.28320779999194,429.72608480000054,429.7260956999962,430.22705829999177,430.5469968999969,430.5102177999943,430.51022999999986,431.9021109999885,431.9021109999885,433.6104680999997,space,1,1.6959264000033727,None,432.7104141000018,011,001,2023-11-12_14h25.04.868,untitled,2023.2.3,60.08770401081217,2023-11-12 14h40.00.644612 +0800,
8,condition_2/rightstar.PNG,space,,,,,,,,,,,,,1,20,45,14,433.67822909999813,,,,,,,,,,,,,,,,,,,,,,,,,,,,,,,,,,,,,,,,,,,,,,,,,,,,,,,,,,,,,,,,,,,,,,,,,,,,,,,,,,,,,,,,,,,,,,,,,,,,,,,,,,433.6109044999903,433.67822909999813,434.1268762999971,434.12688799999887,434.61016859998927,435.0769933999982,434.89390249999997,434.89391780000005,436.2610574999999,436.2610574999999,436.57814299999154,space,1,0.30551210000703577,None,,011,001,2023-11-12_14h25.04.868,untitled,2023.2.3,60.08770401081217,2023-11-12 14h40.00.644612 +0800,
8,condition_2/leftstar.PNG,space,,,,,,,,,,,,,1,21,46,2,436.6438766999927,,,,,,,,,,,,,,,,,,,,,,,,,,,,,,,,,,,,,,,,,,,,,,,,,,,,,,,,,,,,,,,,,,,,,,,,,,,,,,,,,,,,,,,,,,,,,,,,,,,,,,,,,,436.57855029999337,436.6438766999927,437.0932383999898,437.0932504999946,437.5936470000015,438.0602089999884,437.87686499999836,437.87687829999777,439.1930110999965,439.1930110999965,439.61048419999133,space,1,0.4144099999975879,None,,011,001,2023-11-12_14h25.04.868,untitled,2023.2.3,60.08770401081217,2023-11-12 14h40.00.644612 +0800,
8,condition_2/rightstar.PNG,space,,,,,,,,,,,,,1,22,47,6,439.67738850000023,,,,,,,,,,,,,,,,,,,,,,,,,,,,,,,,,,,,,,,,,,,,,,,,,,,,,,,,,,,,,,,,,,,,,,,,,,,,,,,,,,,,,,,,,,,,,,,,,,,,,,,,,,439.61086099999375,439.67738850000023,440.1112034999969,440.1112163999933,440.61022469999443,441.07689019999816,440.89386959999683,440.89388289999624,442.20951299999433,442.20951299999433,442.5271473999892,space,1,0.3050853000022471,None,,011,001,2023-11-12_14h25.04.868,untitled,2023.2.3,60.08770401081217,2023-11-12 14h40.00.644612 +0800,
2,condition_2/blank.PNG,space,,,,,,,,,,,,,1,23,48,9,442.6103180999926,,,,,,,,,,,,,,,,,,,,,,,,,,,,,,,,,,,,,,,,,,,,,,,,,,,,,,,,,,,,,,,,,,,,,,,,,,,,,,,,,,,,,,,,,,,,,,,,,,,,,,,,,,442.52750909999304,442.6103180999926,443.0448464999936,443.04486109998834,443.5263568999944,443.8604071000009,443.8099080999964,443.8099193999951,445.2184164999926,445.2184164999926,447.5615984999895,space,1,2.3353993999917293,None,446.02780079998774,011,001,2023-11-12_14h25.04.868,untitled,2023.2.3,60.08770401081217,2023-11-12 14h40.00.644612 +0800,
9,condition_2/leftstar.PNG,space,,,,,,,,,,,,,1,24,49,3,447.6431634999899,,,,,,,,,,,,,,,,,,,,,,,,,,,,,,,,,,,,,,,,,,,,,,,,,,,,,,,,,,,,,,,,,,,,,,,,,,,,,,,,,,,,,,,,,,,,,,,,,,,,,,,,,,447.5620654999948,447.6431634999899,448.0762810000015,448.0762931999925,448.5771334999881,449.0604883999913,448.85996879999584,448.8599816999922,450.2149716999993,450.2149716999993,450.57710229999793,space,1,0.35015450000355486,None,,011,001,2023-11-12_14h25.04.868,untitled,2023.2.3,60.08770401081217,2023-11-12 14h40.00.644612 +0800,
