stimuli,star,CorrectAns,trials_3.thisRepN,trials_3.thisTrialN,trials_3.thisN,trials_3.thisIndex,trials.thisRepN,trials.thisTrialN,trials.thisN,trials.thisIndex,trials_4.thisRepN,trials_4.thisTrialN,trials_4.thisN,trials_4.thisIndex,trials_2.thisRepN,trials_2.thisTrialN,trials_2.thisN,trials_2.thisIndex,thisRow.t,notes,routine_21.started,text_9.started,key_resp_8.started,routine_21.stopped,key_resp_8.keys,key_resp_8.rt,key_resp_8.duration,introduction.started,text_6.started,key_resp_5.started,introduction.stopped,key_resp_5.keys,key_resp_5.rt,key_resp_5.duration,routine_14.started,image_6.started,routine_14.stopped,routine_16.started,text_4.started,text_4.stopped,routine_16.stopped,routine_17.started,image_7.started,key_resp_3.started,image_7.stopped,routine_17.stopped,key_resp_3.keys,key_resp_3.rt,key_resp_3.duration,routine_20.started,text_8.started,key_resp_7.started,routine_20.stopped,key_resp_7.keys,key_resp_7.rt,key_resp_7.duration,routine_18.started,text_5.started,key_resp_4.started,routine_18.stopped,key_resp_4.keys,key_resp_4.rt,key_resp_4.duration,trial.started,image_3.started,trial.stopped,routine.started,text_3.started,text_3.stopped,routine.stopped,routine_1.started,image_2.started,key_resp.started,image_2.stopped,routine_1.stopped,key_resp.keys,key_resp.corr,key_resp.rt,key_resp.duration,routine_22.started,text_10.started,key_resp_9.started,routine_22.stopped,key_resp_9.keys,key_resp_9.rt,key_resp_9.duration,routine_19.started,text_7.started,key_resp_6.started,routine_19.stopped,key_resp_6.keys,key_resp_6.rt,key_resp_6.duration,routine_23.started,image_8.started,routine_23.stopped,routine_24.started,text_11.started,text_11.stopped,routine_24.stopped,routine_25.started,image_9.started,key_resp_10.started,routine_25.stopped,key_resp_10.keys,key_resp_10.rt,key_resp_10.duration,image_9.stopped,routine_26.started,text_12.started,key_resp_11.started,text_12.stopped,routine_26.stopped,key_resp_11.keys,key_resp_11.rt,key_resp_11.duration,routine_27.started,text_13.started,key_resp_12.started,text_13.stopped,routine_27.stopped,key_resp_12.keys,key_resp_12.rt,key_resp_12.duration,routine_10.started,image_4.started,routine_10.stopped,routine_11.started,text.started,text.stopped,routine_11.stopped,routine_12.started,image_5.started,key_resp_2.started,routine_12.stopped,key_resp_2.keys,key_resp_2.corr,key_resp_2.rt,key_resp_2.duration,image_5.stopped,participant,session,date,expName,psychopyVersion,frameRate,expStart,
,,,,,,,,,,,,,,,,,,,,,0.005595649917836454,0.018814820735201465,0.018814820735201465,7.253906934273118,space,7.230970869148109,None,,,,,,,,,,,,,,,,,,,,,,,,,,,,,,,,,,,,,,,,,,,,,,,,,,,,,,,,,,,,,,,,,,,,,,,,,,,,,,,,,,,,,,,,,,,,,,,,,,,,,,,,,,,,,,,,,,002,001,2023-11-09_17h57.35.914,untitled,2023.2.2,60.068422809995745,2023-11-09 17h57.44.814980 +0800,
,,,,,,,,,,,,,,,,,,,,,,,,,,,,7.253952605689619,7.2692423142067355,7.2692423142067355,82.56992549249264,space,75.2998343509746,None,,,,,,,,,,,,,,,,,,,,,,,,,,,,,,,,,,,,,,,,,,,,,,,,,,,,,,,,,,,,,,,,,,,,,,,,,,,,,,,,,,,,,,,,,,,,,,,,,,,,,,,,,,,002,001,2023-11-09_17h57.35.914,untitled,2023.2.2,60.068422809995745,2023-11-09 17h57.44.814980 +0800,
1,test/blank.PNG,space,0,0,0,2,,,,,,,,,,,,,82.69253882295754,,,,,,,,,,,,,,,,82.5760860257185,82.69253882295754,83.08566695742138,83.08568198091359,83.5691100173342,83.94656804845738,83.85338964538857,83.85341458438563,85.16924354613309,85.16924354613309,85.96947076142965,90.98713838829781,space,5.814856190625278,None,,,,,,,,,,,,,,,,,,,,,,,,,,,,,,,,,,,,,,,,,,,,,,,,,,,,,,,,,,,,,,,,,,,,,,,,,,,,,,,,,,,,,,,,,,,,002,001,2023-11-09_17h57.35.914,untitled,2023.2.2,60.068422809995745,2023-11-09 17h57.44.814980 +0800,
8,test/leftstar.PNG,left,0,1,1,5,,,,,,,,,,,,,91.09732548786542,,,,,,,,,,,,,,,,90.98828167605689,91.09732548786542,91.50246400296146,91.50247782457438,92.00242809681504,92.52696822020596,92.28671643849498,92.28674137749204,93.61099821791345,93.61099821791345,94.418898531634,98.95369849834196,left,5.326352317118335,None,,,,,,,,,,,,,,,,,,,,,,,,,,,,,,,,,,,,,,,,,,,,,,,,,,,,,,,,,,,,,,,,,,,,,,,,,,,,,,,,,,,,,,,,,,,,002,001,2023-11-09_17h57.35.914,untitled,2023.2.2,60.068422809995745,2023-11-09 17h57.44.814980 +0800,
9,test/rightstar.PNG,right,0,2,2,3,,,,,,,,,,,,,99.05385471261411,,,,,,,,,,,,,,,,98.95422672432892,99.05385471261411,99.4691830615534,99.46919868598536,99.96907684546329,100.47810130701384,100.2532311775924,100.253253412361,101.57194254656008,101.57194254656008,102.3857287640684,103.35323144801532,right,1.764628749976282,None,,,,,,,,,,,,,,,,,,,,,,,,,,,,,,,,,,,,,,,,,,,,,,,,,,,,,,,,,,,,,,,,,,,,,,,,,,,,,,,,,,,,,,,,,,,,002,001,2023-11-09_17h57.35.914,untitled,2023.2.2,60.068422809995745,2023-11-09 17h57.44.814980 +0800,
2,test/leftstar.PNG,space,0,3,3,4,,,,,,,,,,,,,103.45727814583665,,,,,,,,,,,,,,,,103.35362356116264,103.45727814583665,103.86880945734856,103.86881997379305,104.35272545679686,104.85821759485316,104.63693297208852,104.63696091578402,105.95636727150247,105.95636727150247,106.76899998527699,107.92029376335779,space,1.9477164442038202,None,,,,,,,,,,,,,,,,,,,,,,,,,,,,,,,,,,,,,,,,,,,,,,,,,,,,,,,,,,,,,,,,,,,,,,,,,,,,,,,,,,,,,,,,,,,,002,001,2023-11-09_17h57.35.914,untitled,2023.2.2,60.068422809995745,2023-11-09 17h57.44.814980 +0800,
1,test/leftstar.PNG,space,0,4,4,0,,,,,,,,,,,,,108.02837847542207,,,,,,,,,,,,,,,,107.9209779331942,108.02837847542207,108.43573025139415,108.4357437725372,108.93593892770127,109.4317424156153,109.21949562530938,109.21950704316339,110.54005217959332,110.54005217959332,111.35226213229635,122.05355844934729,space,11.500047324000548,None,,,,,,,,,,,,,,,,,,,,,,,,,,,,,,,,,,,,,,,,,,,,,,,,,,,,,,,,,,,,,,,,,,,,,,,,,,,,,,,,,,,,,,,,,,,,002,001,2023-11-09_17h57.35.914,untitled,2023.2.2,60.068422809995745,2023-11-09 17h57.44.814980 +0800,
8,test/rightstar.PNG,right,0,5,5,1,,,,,,,,,,,,,122.17433440671186,,,,,,,,,,,,,,,,122.05426335160291,122.17433440671186,122.56918603620488,122.56920015828757,123.06911317226752,123.56437521352143,123.35288110017643,123.35289251803044,124.67359359830971,124.67359359830971,125.48555446151147,126.11975586224185,right,1.4311712224405255,None,,,,,,,,,,,,,,,,,,,,,,,,,,,,,,,,,,,,,,,,,,,,,,,,,,,,,,,,,,,,,,,,,,,,,,,,,,,,,,,,,,,,,,,,,,,,002,001,2023-11-09_17h57.35.914,untitled,2023.2.2,60.068422809995745,2023-11-09 17h57.44.814980 +0800,
,,,,,,,,,,,,,,,,,,,,,,,,,,,,,,,,,,,,,,,,,,,,,,,,,,126.12005452926746,126.1356990926713,126.1356990926713,144.90368919880018,space,18.753040529475925,None,,,,,,,,,,,,,,,,,,,,,,,,,,,,,,,,,,,,,,,,,,,,,,,,,,,,,,,,,,,,,,,,,,,,,,,,,,,,,,,,,,,,,002,001,2023-11-09_17h57.35.914,untitled,2023.2.2,60.068422809995745,2023-11-09 17h57.44.814980 +0800,
,,,,,,,,,,,,,,,,,,,,,,,,,,,,,,,,,,,,,,,,,,,,,,,,,,,,,,,,,144.9037333678674,144.9189804096667,144.9189804096667,169.53723918090725,space,24.60159801882196,None,,,,,,,,,,,,,,,,,,,,,,,,,,,,,,,,,,,,,,,,,,,,,,,,,,,,,,,,,,,,,,,,,,,,,,,,,,,,,,002,001,2023-11-09_17h57.35.914,untitled,2023.2.2,60.068422809995745,2023-11-09 17h57.44.814980 +0800,
1,condition_1/leftstar.PNG,space,,,,,0,0,0,22,,,,,,,,,169.68393186425624,,,,,,,,,,,,,,,,,,,,,,,,,,,,,,,,,,,,,,,,,,,,,169.56026057946815,169.68393186425624,170.05234965916213,170.05236227889554,170.55259769701888,171.06540056686651,170.8369620575695,170.83698759750632,172.1643933619,172.1643933619,172.96903387827547,180.02055183690743,space,1,7.852491841492565,None,,,,,,,,,,,,,,,,,,,,,,,,,,,,,,,,,,,,,,,,,,,,,,,,,,,,,,,,,,,,,,002,001,2023-11-09_17h57.35.914,untitled,2023.2.2,60.068422809995745,2023-11-09 17h57.44.814980 +0800,
9,condition_1/leftstar.PNG,left,,,,,0,1,1,3,,,,,,,,,180.15120213477826,,,,,,,,,,,,,,,,,,,,,,,,,,,,,,,,,,,,,,,,,,,,,180.02172577259068,180.15120213477826,180.53587925439012,180.53589307600305,181.0359902779977,181.53574464389976,181.31986667552053,181.31987929525405,182.63905729389046,182.63905729389046,,183.20337361532233,left,1,0.5538052853246427,None,,,,,,,,,,,,,,,,,,,,,,,,,,,,,,,,,,,,,,,,,,,,,,,,,,,,,,,,,,,,,,002,001,2023-11-09_17h57.35.914,untitled,2023.2.2,60.068422809995745,2023-11-09 17h57.44.814980 +0800,
2,condition_1/leftstar.PNG,space,,,,,0,2,2,1,,,,,,,,,183.30507845117415,,,,,,,,,,,,,,,,,,,,,,,,,,,,,,,,,,,,,,,,,,,,,183.20390334365857,183.30507845117415,183.7192713245703,183.7192863480625,184.2027026661591,184.71684533104417,184.48696486696247,184.48699070736916,185.80811034214207,185.80811034214207,186.61974729885128,186.6218593013897,space,1,0.8091142118930748,None,,,,,,,,,,,,,,,,,,,,,,,,,,,,,,,,,,,,,,,,,,,,,,,,,,,,,,,,,,,,,,002,001,2023-11-09_17h57.35.914,untitled,2023.2.2,60.068422809995745,2023-11-09 17h57.44.814980 +0800,
8,condition_1/blank.PNG,space,,,,,0,3,3,10,,,,,,,,,186.7356610531889,,,,,,,,,,,,,,,,,,,,,,,,,,,,,,,,,,,,,,,,,,,,,186.62334151913353,186.7356610531889,187.13605665178648,187.13607227621833,187.63592850139764,188.00681585795712,187.9198009928125,187.91981331207614,189.23612182369573,189.23612182369573,190.03612999647555,190.2205181241909,space,1,0.9729456951835118,None,,,,,,,,,,,,,,,,,,,,,,,,,,,,,,,,,,,,,,,,,,,,,,,,,,,,,,,,,,,,,,002,001,2023-11-09_17h57.35.914,untitled,2023.2.2,60.068422809995745,2023-11-09 17h57.44.814980 +0800,
8,condition_1/leftstar.PNG,left,,,,,0,4,4,2,,,,,,,,,190.3282930518452,,,,,,,,,,,,,,,,,,,,,,,,,,,,,,,,,,,,,,,,,,,,,190.22146790936995,190.3282930518452,190.7365390260751,190.73656757071035,191.23612963591177,191.73809846456913,191.5205231420373,191.5205534894916,192.839269065037,192.839269065037,193.6525946622735,193.7033671552207,left,1,0.8490938280189084,None,,,,,,,,,,,,,,,,,,,,,,,,,,,,,,,,,,,,,,,,,,,,,,,,,,,,,,,,,,,,,,002,001,2023-11-09_17h57.35.914,untitled,2023.2.2,60.068422809995745,2023-11-09 17h57.44.814980 +0800,
2,condition_1/leftstar.PNG,space,,,,,0,5,5,17,,,,,,,,,193.8016992170658,,,,,,,,,,,,,,,,,,,,,,,,,,,,,,,,,,,,,,,,,,,,,193.70384309945462,193.8016992170658,194.21925044191607,194.21926336211936,194.70282961466853,195.21625595944386,194.9868886978569,194.98691453826348,196.32321631334923,196.32321631334923,197.13600767520177,197.55388731359233,space,1,1.2138954683438214,None,,,,,,,,,,,,,,,,,,,,,,,,,,,,,,,,,,,,,,,,,,,,,,,,,,,,,,,,,,,,,,002,001,2023-11-09_17h57.35.914,untitled,2023.2.2,60.068422809995745,2023-11-09 17h57.44.814980 +0800,
1,condition_1/rightstar.PNG,space,,,,,0,6,6,4,,,,,,,,,197.65874708281342,,,,,,,,,,,,,,,,,,,,,,,,,,,,,,,,,,,,,,,,,,,,,197.55478511748822,197.65874708281342,198.0693141865936,198.069327106797,198.56924042124672,199.0699049103083,198.8532000489165,198.85321206771027,200.17250694911638,200.17250694911638,,200.52012171432477,space,1,0.34085539558213895,None,,,,,,,,,,,,,,,,,,,,,,,,,,,,,,,,,,,,,,,,,,,,,,,,,,,,,,,,,,,,,,002,001,2023-11-09_17h57.35.914,untitled,2023.2.2,60.068422809995745,2023-11-09 17h57.44.814980 +0800,
1,condition_1/leftstar.PNG,space,,,,,0,7,7,0,,,,,,,,,200.61853490302792,,,,,,,,,,,,,,,,,,,,,,,,,,,,,,,,,,,,,,,,,,,,,200.5206688699119,200.61853490302792,201.03593168637804,201.03594580846072,201.53614787443132,202.04119591805716,201.82028327696025,201.8203082159573,203.1399137831828,203.1399137831828,,203.37002831327356,space,1,0.2210544628635489,None,,,,,,,,,,,,,,,,,,,,,,,,,,,,,,,,,,,,,,,,,,,,,,,,,,,,,,,,,,,,,,002,001,2023-11-09_17h57.35.914,untitled,2023.2.2,60.068422809995745,2023-11-09 17h57.44.814980 +0800,
1,condition_1/blank.PNG,space,,,,,0,8,8,8,,,,,,,,,203.470462762622,,,,,,,,,,,,,,,,,,,,,,,,,,,,,,,,,,,,,,,,,,,,,203.37057126228285,203.470462762622,203.88590018211482,203.8859146046674,204.38582611629806,204.74146763293766,204.6696637532109,204.66967607247454,205.96956811365942,205.96956811365942,206.76929204196608,207.03711583803602,space,1,1.0550274464179665,None,,,,,,,,,,,,,,,,,,,,,,,,,,,,,,,,,,,,,,,,,,,,,,,,,,,,,,,,,,,,,,002,001,2023-11-09_17h57.35.914,untitled,2023.2.2,60.068422809995745,2023-11-09 17h57.44.814980 +0800,
8,condition_1/leftstar.PNG,left,,,,,0,9,9,18,,,,,,,,,207.15360979964373,,,,,,,,,,,,,,,,,,,,,,,,,,,,,,,,,,,,,,,,,,,,,207.0378808342606,207.15360979964373,207.55280592262125,207.5528251526913,208.0528204954087,208.55776788163655,208.33691743779752,208.33694297773434,209.6566095403383,209.6566095403383,210.46935763453314,210.93735323926023,left,1,1.2720697354453705,None,,,,,,,,,,,,,,,,,,,,,,,,,,,,,,,,,,,,,,,,,,,,,,,,,,,,,,,,,,,,,,002,001,2023-11-09_17h57.35.914,untitled,2023.2.2,60.068422809995745,2023-11-09 17h57.44.814980 +0800,
9,condition_1/leftstar.PNG,left,,,,,0,10,10,20,,,,,,,,,211.03759899354623,,,,,,,,,,,,,,,,,,,,,,,,,,,,,,,,,,,,,,,,,,,,,210.93807496782722,211.03759899354623,211.45315600003732,211.4531830423233,211.95292298567279,212.46095800002468,212.23727021944217,212.23730236971562,213.55744697984244,213.55744697984244,,214.13782191212408,left,1,0.5638010156482096,None,,,,,,,,,,,,,,,,,,,,,,,,,,,,,,,,,,,,,,,,,,,,,,,,,,,,,,,,,,,,,,002,001,2023-11-09_17h57.35.914,untitled,2023.2.2,60.068422809995745,2023-11-09 17h57.44.814980 +0800,
2,condition_1/blank.PNG,space,,,,,0,11,11,9,,,,,,,,,214.2536353095336,,,,,,,,,,,,,,,,,,,,,,,,,,,,,,,,,,,,,,,,,,,,,214.1389694064609,214.2536353095336,214.6526974229604,214.65271485021128,215.15268224923318,215.52472581375503,215.43764394383504,215.43768150256562,216.7528996091188,216.7528996091188,217.55260490829517,217.57022986844538,space,1,0.81616022975129,None,,,,,,,,,,,,,,,,,,,,,,,,,,,,,,,,,,,,,,,,,,,,,,,,,,,,,,,,,,,,,,002,001,2023-11-09_17h57.35.914,untitled,2023.2.2,60.068422809995745,2023-11-09 17h57.44.814980 +0800,
2,condition_1/rightstar.PNG,space,,,,,0,12,12,5,,,,,,,,,217.67352088460734,,,,,,,,,,,,,,,,,,,,,,,,,,,,,,,,,,,,,,,,,,,,,217.57080136208992,217.67352088460734,218.0860076902253,218.0860227137175,218.58618211297005,219.09244285288912,218.87002726162905,218.87004979686742,220.18961419972413,220.18961419972413,221.0026339186586,222.25380056794825,space,1,2.05168471939578,None,,,,,,,,,,,,,,,,,,,,,,,,,,,,,,,,,,,,,,,,,,,,,,,,,,,,,,,,,,,,,,002,001,2023-11-09_17h57.35.914,untitled,2023.2.2,60.068422809995745,2023-11-09 17h57.44.814980 +0800,
8,condition_1/rightstar.PNG,right,,,,,0,13,13,14,,,,,,,,,222.3649116122881,,,,,,,,,,,,,,,,,,,,,,,,,,,,,,,,,,,,,,,,,,,,,222.25460372384305,222.3649116122881,222.76981215526735,222.76983889708345,223.2693489810017,223.77535101638432,223.5533702049895,223.55339153834848,224.87512893912208,224.87512893912208,,225.53668721780264,right,1,0.6454356677536452,None,,,,,,,,,,,,,,,,,,,,,,,,,,,,,,,,,,,,,,,,,,,,,,,,,,,,,,,,,,,,,,002,001,2023-11-09_17h57.35.914,untitled,2023.2.2,60.068422809995745,2023-11-09 17h57.44.814980 +0800,
1,condition_1/rightstar.PNG,space,,,,,0,14,14,12,,,,,,,,,225.64149680855962,,,,,,,,,,,,,,,,,,,,,,,,,,,,,,,,,,,,,,,,,,,,,225.53724969735185,225.64149680855962,226.05277242023362,226.05278714325596,226.53594806198453,227.03191590690358,226.8198566097808,226.8198695299841,228.14085335238724,228.14085335238724,228.95261260032316,229.03720477711,space,1,0.8846859834723091,None,,,,,,,,,,,,,,,,,,,,,,,,,,,,,,,,,,,,,,,,,,,,,,,,,,,,,,,,,,,,,,002,001,2023-11-09_17h57.35.914,untitled,2023.2.2,60.068422809995745,2023-11-09 17h57.44.814980 +0800,
8,condition_1/blank.PNG,space,,,,,0,15,15,24,,,,,,,,,229.15018294106494,,,,,,,,,,,,,,,,,,,,,,,,,,,,,,,,,,,,,,,,,,,,,229.0380088344143,229.15018294106494,229.5528693217584,229.55288644853954,230.05299747214735,230.4407967739155,230.33718064938148,230.3372109968359,231.65287770486725,231.65287770486725,232.45263168015822,233.8879340624935,space,1,2.2286407255023732,None,,,,,,,,,,,,,,,,,,,,,,,,,,,,,,,,,,,,,,,,,,,,,,,,,,,,,,,,,,,,,,002,001,2023-11-09_17h57.35.914,untitled,2023.2.2,60.068422809995745,2023-11-09 17h57.44.814980 +0800,
8,condition_1/rightstar.PNG,right,,,,,0,16,16,6,,,,,,,,,234.00108619848857,,,,,,,,,,,,,,,,,,,,,,,,,,,,,,,,,,,,,,,,,,,,,233.88910619535773,234.00108619848857,234.40269960136675,234.40271342297956,234.90276765778663,235.42584479350376,235.1868835297755,235.18690786783304,236.51133868029433,236.51133868029433,237.31931441194592,237.3201728542922,right,1,0.8016183906775041,None,,,,,,,,,,,,,,,,,,,,,,,,,,,,,,,,,,,,,,,,,,,,,,,,,,,,,,,,,,,,,,002,001,2023-11-09_17h57.35.914,untitled,2023.2.2,60.068422809995745,2023-11-09 17h57.44.814980 +0800,
2,condition_1/rightstar.PNG,space,,,,,0,17,17,13,,,,,,,,,237.42114784889145,,,,,,,,,,,,,,,,,,,,,,,,,,,,,,,,,,,,,,,,,,,,,237.32073773760044,237.42114784889145,237.83604141796536,237.8360525353496,238.33585227219805,238.8474114973585,238.6205456472287,238.62057539374314,239.94015482009218,239.94015482009218,240.75259883880426,240.97060743885208,space,1,1.0288451050907952,None,,,,,,,,,,,,,,,,,,,,,,,,,,,,,,,,,,,,,,,,,,,,,,,,,,,,,,,,,,,,,,002,001,2023-11-09_17h57.35.914,untitled,2023.2.2,60.068422809995745,2023-11-09 17h57.44.814980 +0800,
9,condition_1/leftstar.PNG,left,,,,,0,18,18,19,,,,,,,,,241.08029095096003,,,,,,,,,,,,,,,,,,,,,,,,,,,,,,,,,,,,,,,,,,,,,240.97140067924215,241.08029095096003,241.48631374880915,241.48633508216813,241.98623697876383,242.49521877359643,242.2702467848976,242.27027292577418,243.5905891041823,243.5905891041823,244.40255177020322,245.0042276107149,left,1,1.410251009503554,None,,,,,,,,,,,,,,,,,,,,,,,,,,,,,,,,,,,,,,,,,,,,,,,,,,,,,,,,,,,,,,002,001,2023-11-09_17h57.35.914,untitled,2023.2.2,60.068422809995745,2023-11-09 17h57.44.814980 +0800,
9,condition_1/blank.PNG,space,,,,,0,19,19,11,,,,,,,,,245.11176636907135,,,,,,,,,,,,,,,,,,,,,,,,,,,,,,,,,,,,,,,,,,,,,245.00525010959632,245.11176636907135,245.5195595352452,245.5195775634361,246.01946503747922,246.3830596904379,246.30372904110163,246.30375367962893,247.61951022814378,247.61951022814378,,248.28798111607125,space,1,0.660664981832042,None,,,,,,,,,,,,,,,,,,,,,,,,,,,,,,,,,,,,,,,,,,,,,,,,,,,,,,,,,,,,,,002,001,2023-11-09_17h57.35.914,untitled,2023.2.2,60.068422809995745,2023-11-09 17h57.44.814980 +0800,
2,condition_1/rightstar.PNG,space,,,,,0,20,20,21,,,,,,,,,248.39957922202962,,,,,,,,,,,,,,,,,,,,,,,,,,,,,,,,,,,,,,,,,,,,,248.28914453531002,248.39957922202962,248.80302158485233,248.8030450215001,249.3029201762797,249.81510287636775,249.58715293103842,249.58718027379427,250.90688860170644,250.90688860170644,251.71936056411414,252.15377806275683,space,1,1.2372104259432035,None,,,,,,,,,,,,,,,,,,,,,,,,,,,,,,,,,,,,,,,,,,,,,,,,,,,,,,,,,,,,,,002,001,2023-11-09_17h57.35.914,untitled,2023.2.2,60.068422809995745,2023-11-09 17h57.44.814980 +0800,
9,condition_1/rightstar.PNG,right,,,,,0,21,21,15,,,,,,,,,252.2552217903135,,,,,,,,,,,,,,,,,,,,,,,,,,,,,,,,,,,,,,,,,,,,,252.15448086172364,252.2552217903135,252.66997383809075,252.67000388507518,253.16983276749852,253.6817862090952,253.45417369140137,253.4542094473129,254.77427533434025,254.77427533434025,255.5864173808584,256.23765452037355,right,1,1.4507125792601983,None,,,,,,,,,,,,,,,,,,,,,,,,,,,,,,,,,,,,,,,,,,,,,,,,,,,,,,,,,,,,,,002,001,2023-11-09_17h57.35.914,untitled,2023.2.2,60.068422809995745,2023-11-09 17h57.44.814980 +0800,
8,condition_1/rightstar.PNG,right,,,,,0,22,22,23,,,,,,,,,256.3489164005757,,,,,,,,,,,,,,,,,,,,,,,,,,,,,,,,,,,,,,,,,,,,,256.23884798659674,256.3489164005757,256.7527607920506,256.7527755150729,257.2528739189472,257.76168474643805,257.5369372087134,257.5369621477105,258.85657402480274,258.85657402480274,,259.55396393340266,right,1,0.6807108275208975,None,,,,,,,,,,,,,,,,,,,,,,,,,,,,,,,,,,,,,,,,,,,,,,,,,,,,,,,,,,,,,,002,001,2023-11-09_17h57.35.914,untitled,2023.2.2,60.068422809995745,2023-11-09 17h57.44.814980 +0800,
1,condition_1/leftstar.PNG,space,,,,,0,23,23,16,,,,,,,,,259.6589679281492,,,,,,,,,,,,,,,,,,,,,,,,,,,,,,,,,,,,,,,,,,,,,259.55480374661875,259.6589679281492,260.06956327609487,260.0695792009967,260.5694378299347,261.08056167429004,260.8535332699744,260.85355460333335,262.1729618604613,262.1729618604613,262.98609665934623,263.5541505251763,space,1,1.3724582129075316,None,,,,,,,,,,,,,,,,,,,,,,,,,,,,,,,,,,,,,,,,,,,,,,,,,,,,,,,,,,,,,,002,001,2023-11-09_17h57.35.914,untitled,2023.2.2,60.068422809995745,2023-11-09 17h57.44.814980 +0800,
9,condition_1/rightstar.PNG,right,,,,,0,24,24,7,,,,,,,,,263.6613951235547,,,,,,,,,,,,,,,,,,,,,,,,,,,,,,,,,,,,,,,,,,,,,263.5549801224174,263.6613951235547,264.0695302244119,264.0695443464947,264.56943272194735,265.08201865256706,264.8537264720844,264.85375050967195,266.17341917556496,266.17341917556496,266.9862829506501,267.8709202580076,right,1,1.6912558167205134,None,,,,,,,,,,,,,,,,,,,,,,,,,,,,,,,,,,,,,,,,,,,,,,,,,,,,,,,,,,,,,,002,001,2023-11-09_17h57.35.914,untitled,2023.2.2,60.068422809995745,2023-11-09 17h57.44.814980 +0800,
8,condition_1/rightstar.PNG,right,,,,,1,0,25,14,,,,,,,,,267.9810523715935,,,,,,,,,,,,,,,,,,,,,,,,,,,,,,,,,,,,,,,,,,,,,267.8718541182848,267.9810523715935,268.38588470791774,268.3858982290608,268.8862436191473,269.38888429837743,269.17027716239886,269.1702999981071,270.4906552375951,270.4906552375951,271.30303765998906,271.7381901078718,right,1,1.246008182995638,None,,,,,,,,,,,,,,,,,,,,,,,,,,,,,,,,,,,,,,,,,,,,,,,,,,,,,,,,,,,,,,002,001,2023-11-09_17h57.35.914,untitled,2023.2.2,60.068422809995745,2023-11-09 17h57.44.814980 +0800,
9,condition_1/rightstar.PNG,right,,,,,1,1,26,7,,,,,,,,,271.839816521094,,,,,,,,,,,,,,,,,,,,,,,,,,,,,,,,,,,,,,,,,,,,,271.7393087571036,271.839816521094,272.25289765606476,272.25291328049684,272.7529894496024,273.2628326914796,273.0373378852512,273.03736763176585,274.3563839776259,274.3563839776259,275.1694685980467,275.58737557919335,right,1,1.220952002646527,None,,,,,,,,,,,,,,,,,,,,,,,,,,,,,,,,,,,,,,,,,,,,,,,,,,,,,,,,,,,,,,002,001,2023-11-09_17h57.35.914,untitled,2023.2.2,60.068422809995745,2023-11-09 17h57.44.814980 +0800,
9,condition_1/blank.PNG,space,,,,,1,2,27,11,,,,,,,,,275.69451891923404,,,,,,,,,,,,,,,,,,,,,,,,,,,,,,,,,,,,,,,,,,,,,275.5881931576407,275.69451891923404,276.10290220818297,276.1029172316753,276.60294352278675,276.99337463992447,276.8871988127837,276.88722495366005,278.20290307954565,278.20290307954565,,278.6045297030969,space,1,0.3983019247198172,None,,,,,,,,,,,,,,,,,,,,,,,,,,,,,,,,,,,,,,,,,,,,,,,,,,,,,,,,,,,,,,002,001,2023-11-09_17h57.35.914,untitled,2023.2.2,60.068422809995745,2023-11-09 17h57.44.814980 +0800,
2,condition_1/leftstar.PNG,space,,,,,1,3,28,1,,,,,,,,,278.7201105368465,,,,,,,,,,,,,,,,,,,,,,,,,,,,,,,,,,,,,,,,,,,,,278.6055543052671,278.7201105368465,279.1195740779858,279.1195857963098,279.6195435802965,280.1165384311448,279.9034581374897,279.9034698558137,281.22350389303756,281.22350389303756,,281.60431276386885,space,1,0.369499786816732,None,,,,,,,,,,,,,,,,,,,,,,,,,,,,,,,,,,,,,,,,,,,,,,,,,,,,,,,,,,,,,,002,001,2023-11-09_17h57.35.914,untitled,2023.2.2,60.068422809995745,2023-11-09 17h57.44.814980 +0800,
8,condition_1/rightstar.PNG,right,,,,,1,4,29,23,,,,,,,,,281.7155548130613,,,,,,,,,,,,,,,,,,,,,,,,,,,,,,,,,,,,,,,,,,,,,281.6052823800578,281.7155548130613,282.1195671671794,282.119583392551,282.61963342078,283.1295085124609,282.9035068136045,282.9035278464937,284.22357390251136,284.22357390251136,,284.78688485184284,right,1,0.5611731063863772,None,,,,,,,,,,,,,,,,,,,,,,,,,,,,,,,,,,,,,,,,,,,,,,,,,,,,,,,,,,,,,,002,001,2023-11-09_17h57.35.914,untitled,2023.2.2,60.068422809995745,2023-11-09 17h57.44.814980 +0800,
1,condition_1/leftstar.PNG,space,,,,,1,5,30,22,,,,,,,,,284.8906127511591,,,,,,,,,,,,,,,,,,,,,,,,,,,,,,,,,,,,,,,,,,,,,284.78744162246517,284.8906127511591,285.30259056086015,285.30260227918393,285.7862655834929,286.29613767047545,286.07036432870086,286.0703892676979,287.40617153042217,287.40617153042217,,287.8704352996781,space,1,0.4592555378844736,None,,,,,,,,,,,,,,,,,,,,,,,,,,,,,,,,,,,,,,,,,,,,,,,,,,,,,,,,,,,,,,002,001,2023-11-09_17h57.35.914,untitled,2023.2.2,60.068422809995745,2023-11-09 17h57.44.814980 +0800,
8,condition_1/leftstar.PNG,left,,,,,1,6,31,18,,,,,,,,,287.97732804786847,,,,,,,,,,,,,,,,,,,,,,,,,,,,,,,,,,,,,,,,,,,,,287.87112938501946,287.97732804786847,288.38614281151445,288.38615573171774,288.8863103234528,289.3933006041548,289.17047246779794,289.170497707265,290.4891312545428,290.4891312545428,291.3030475754938,291.7713733965802,left,1,1.271645772494594,None,,,,,,,,,,,,,,,,,,,,,,,,,,,,,,,,,,,,,,,,,,,,,,,,,,,,,,,,,,,,,,002,001,2023-11-09_17h57.35.914,untitled,2023.2.2,60.068422809995745,2023-11-09 17h57.44.814980 +0800,
9,condition_1/rightstar.PNG,right,,,,,1,7,32,15,,,,,,,,,291.88151332238226,,,,,,,,,,,,,,,,,,,,,,,,,,,,,,,,,,,,,,,,,,,,,291.7725332101809,291.88151332238226,292.2864880814129,292.2865001002067,292.7864828231907,293.30259506790776,293.07021169001973,293.0702528543884,294.39031303248885,294.39031303248885,295.20307464782695,295.3543353742248,right,1,0.9471755984832271,None,,,,,,,,,,,,,,,,,,,,,,,,,,,,,,,,,,,,,,,,,,,,,,,,,,,,,,,,,,,,,,002,001,2023-11-09_17h57.35.914,untitled,2023.2.2,60.068422809995745,2023-11-09 17h57.44.814980 +0800,
2,condition_1/blank.PNG,space,,,,,1,8,33,9,,,,,,,,,295.462338959431,,,,,,,,,,,,,,,,,,,,,,,,,,,,,,,,,,,,,,,,,,,,,295.3553143049787,295.462338959431,295.86964205928825,295.8696591860694,296.36940393693635,296.75369074621995,296.653408034143,296.65342516092414,297.96971955046115,297.96971955046115,298.7696207559761,299.4378197186941,space,1,1.4545309500465464,None,,,,,,,,,,,,,,,,,,,,,,,,,,,,,,,,,,,,,,,,,,,,,,,,,,,,,,,,,,,,,,002,001,2023-11-09_17h57.35.914,untitled,2023.2.2,60.068422809995745,2023-11-09 17h57.44.814980 +0800,
1,condition_1/rightstar.PNG,space,,,,,1,9,34,12,,,,,,,,,299.54677549283815,,,,,,,,,,,,,,,,,,,,,,,,,,,,,,,,,,,,,,,,,,,,,299.43882779502314,299.54677549283815,299.95305038488686,299.9530666102585,300.4528666475769,300.9624076167904,300.73701617218853,300.737038406957,302.05617313793573,302.05617313793573,,302.45363104286184,space,1,0.38523989963118765,None,,,,,,,,,,,,,,,,,,,,,,,,,,,,,,,,,,,,,,,,,,,,,,,,,,,,,,,,,,,,,,002,001,2023-11-09_17h57.35.914,untitled,2023.2.2,60.068422809995745,2023-11-09 17h57.44.814980 +0800,
1,condition_1/blank.PNG,space,,,,,1,10,35,8,,,,,,,,,302.5575863978504,,,,,,,,,,,,,,,,,,,,,,,,,,,,,,,,,,,,,,,,,,,,,302.45416587918544,302.5575863978504,302.96969641428313,302.969712038715,303.4695343108019,303.85905230008166,303.75360060526646,303.7536330560097,305.06974235612233,305.06974235612233,,305.2878744492764,space,1,0.21202294027170865,None,,,,,,,,,,,,,,,,,,,,,,,,,,,,,,,,,,,,,,,,,,,,,,,,,,,,,,,,,,,,,,002,001,2023-11-09_17h57.35.914,untitled,2023.2.2,60.068422809995745,2023-11-09 17h57.44.814980 +0800,
2,condition_1/leftstar.PNG,space,,,,,1,11,36,17,,,,,,,,,305.4047992846415,,,,,,,,,,,,,,,,,,,,,,,,,,,,,,,,,,,,,,,,,,,,,305.28890205614516,305.4047992846415,305.8030462233796,305.8030639511003,306.30294751903557,306.8095225504121,306.5870348463893,306.58705918444684,307.906576113068,307.906576113068,308.71951710890335,309.0876900208857,space,1,1.173744283936685,None,,,,,,,,,,,,,,,,,,,,,,,,,,,,,,,,,,,,,,,,,,,,,,,,,,,,,,,,,,,,,,002,001,2023-11-09_17h57.35.914,untitled,2023.2.2,60.068422809995745,2023-11-09 17h57.44.814980 +0800,
2,condition_1/rightstar.PNG,space,,,,,1,12,37,13,,,,,,,,,309.19799220040386,,,,,,,,,,,,,,,,,,,,,,,,,,,,,,,,,,,,,,,,,,,,,309.08855807826694,309.19799220040386,309.6029236917768,309.60293991714843,310.1030791849216,310.6029507340629,310.38668666193325,310.38670228636533,311.7068682298511,311.7068682298511,312.51972238990106,313.4372485255194,space,1,1.717464298924142,None,,,,,,,,,,,,,,,,,,,,,,,,,,,,,,,,,,,,,,,,,,,,,,,,,,,,,,,,,,,,,,002,001,2023-11-09_17h57.35.914,untitled,2023.2.2,60.068422809995745,2023-11-09 17h57.44.814980 +0800,
9,condition_1/leftstar.PNG,left,,,,,1,13,38,20,,,,,,,,,313.54063989860947,,,,,,,,,,,,,,,,,,,,,,,,,,,,,,,,,,,,,,,,,,,,,313.4377100472009,313.54063989860947,313.95288572741197,313.9528980466757,314.4529480749047,314.97786528795086,314.7371471770407,314.7371715150982,316.05760337439665,316.05760337439665,316.8697793740073,316.87132919746614,left,1,0.806765138647279,None,,,,,,,,,,,,,,,,,,,,,,,,,,,,,,,,,,,,,,,,,,,,,,,,,,,,,,,,,,,,,,002,001,2023-11-09_17h57.35.914,untitled,2023.2.2,60.068422809995745,2023-11-09 17h57.44.814980 +0800,
1,condition_1/rightstar.PNG,space,,,,,1,14,39,4,,,,,,,,,316.99327909051385,,,,,,,,,,,,,,,,,,,,,,,,,,,,,,,,,,,,,,,,,,,,,316.8725130486541,316.99327909051385,317.3863522389961,317.3863693657772,317.8860873748281,318.38686303773216,318.1700503076661,318.17006262692985,319.49107048692053,319.49107048692053,320.30270023235335,320.37073111224026,space,1,0.8698511862999112,None,,,,,,,,,,,,,,,,,,,,,,,,,,,,,,,,,,,,,,,,,,,,,,,,,,,,,,,,,,,,,,002,001,2023-11-09_17h57.35.914,untitled,2023.2.2,60.068422809995745,2023-11-09 17h57.44.814980 +0800,
8,condition_1/rightstar.PNG,right,,,,,1,15,40,6,,,,,,,,,320.485302066842,,,,,,,,,,,,,,,,,,,,,,,,,,,,,,,,,,,,,,,,,,,,,320.3714985122235,320.485302066842,320.8863013093576,320.88631663331967,321.3863333093959,321.89654342495373,321.67034131271066,321.6703644488887,322.99034620435987,322.99034620435987,323.80289148140946,323.83673249860817,right,1,0.8356312766272822,None,,,,,,,,,,,,,,,,,,,,,,,,,,,,,,,,,,,,,,,,,,,,,,,,,,,,,,,,,,,,,,002,001,2023-11-09_17h57.35.914,untitled,2023.2.2,60.068422809995745,2023-11-09 17h57.44.814980 +0800,
8,condition_1/blank.PNG,space,,,,,1,16,41,24,,,,,,,,,323.9369298772492,,,,,,,,,,,,,,,,,,,,,,,,,,,,,,,,,,,,,,,,,,,,,323.83718530666397,323.9369298772492,324.3530121050287,324.3530274289908,324.83631604740344,325.21288649060534,325.12018883928795,325.12020867029787,326.43675996155184,326.43675996155184,327.23619844350605,332.72067181451644,space,1,6.267592734759319,None,,,,,,,,,,,,,,,,,,,,,,,,,,,,,,,,,,,,,,,,,,,,,,,,,,,,,,,,,,,,,,002,001,2023-11-09_17h57.35.914,untitled,2023.2.2,60.068422809995745,2023-11-09 17h57.44.814980 +0800,
2,condition_1/rightstar.PNG,space,,,,,1,17,42,21,,,,,,,,,332.8295308373704,,,,,,,,,,,,,,,,,,,,,,,,,,,,,,,,,,,,,,,,,,,,,332.7214779751098,332.8295308373704,333.2363688099081,333.23638413387016,333.736303157247,334.2548308790456,334.0204668039414,334.02048963964967,335.34689574086997,335.34689574086997,,335.98705515815095,space,1,0.6306441382391768,None,,,,,,,,,,,,,,,,,,,,,,,,,,,,,,,,,,,,,,,,,,,,,,,,,,,,,,,,,,,,,,002,001,2023-11-09_17h57.35.914,untitled,2023.2.2,60.068422809995745,2023-11-09 17h57.44.814980 +0800,
9,condition_1/leftstar.PNG,left,,,,,1,18,43,3,,,,,,,,,336.08758876254797,,,,,,,,,,,,,,,,,,,,,,,,,,,,,,,,,,,,,,,,,,,,,335.9875999099793,336.08758876254797,336.502996735996,336.50301296136763,337.0031585390075,337.5081585074581,337.2872392560248,337.2872635940821,338.60692805339704,338.60692805339704,,339.22125547718974,left,1,0.6102458414222838,None,,,,,,,,,,,,,,,,,,,,,,,,,,,,,,,,,,,,,,,,,,,,,,,,,,,,,,,,,,,,,,002,001,2023-11-09_17h57.35.914,untitled,2023.2.2,60.068422809995745,2023-11-09 17h57.44.814980 +0800,
2,condition_1/rightstar.PNG,space,,,,,1,19,44,5,,,,,,,,,339.32772155820066,,,,,,,,,,,,,,,,,,,,,,,,,,,,,,,,,,,,,,,,,,,,,339.2221980510926,339.32772155820066,339.7362845281166,339.7362986501994,340.2363381619839,340.7436893069694,340.52028637179956,340.520306803749,341.8414348516776,341.8414348516776,342.6529053480929,346.13754698221624,space,1,4.279307152594583,None,,,,,,,,,,,,,,,,,,,,,,,,,,,,,,,,,,,,,,,,,,,,,,,,,,,,,,,,,,,,,,002,001,2023-11-09_17h57.35.914,untitled,2023.2.2,60.068422809995745,2023-11-09 17h57.44.814980 +0800,
8,condition_1/blank.PNG,space,,,,,1,20,45,10,,,,,,,,,346.2510074002719,,,,,,,,,,,,,,,,,,,,,,,,,,,,,,,,,,,,,,,,,,,,,346.138415941007,346.2510074002719,346.65314271927014,346.6531580432322,347.1529154138327,347.5508147089604,347.43725603726557,347.4372812767324,348.7530540506191,348.7530540506191,349.55295315284525,350.25408961993867,space,1,1.4878446426675964,None,,,,,,,,,,,,,,,,,,,,,,,,,,,,,,,,,,,,,,,,,,,,,,,,,,,,,,,,,,,,,,002,001,2023-11-09_17h57.35.914,untitled,2023.2.2,60.068422809995745,2023-11-09 17h57.44.814980 +0800,
9,condition_1/leftstar.PNG,left,,,,,1,21,46,19,,,,,,,,,350.35439396584434,,,,,,,,,,,,,,,,,,,,,,,,,,,,,,,,,,,,,,,,,,,,,350.25482096354085,350.35439396584434,350.76974635237116,350.7697613758635,351.26955750707384,351.7815127514896,351.55392336997375,351.55394860944057,352.8737569938112,352.8737569938112,,353.52124847624236,left,1,0.6385636219356456,None,,,,,,,,,,,,,,,,,,,,,,,,,,,,,,,,,,,,,,,,,,,,,,,,,,,,,,,,,,,,,,002,001,2023-11-09_17h57.35.914,untitled,2023.2.2,60.068422809995745,2023-11-09 17h57.44.814980 +0800,
1,condition_1/leftstar.PNG,space,,,,,1,22,47,0,,,,,,,,,353.62712533588774,,,,,,,,,,,,,,,,,,,,,,,,,,,,,,,,,,,,,,,,,,,,,353.52218834591645,353.62712533588774,354.03642505786297,354.0364400813553,354.5366523633006,355.0379289094358,354.820171502178,354.8202006477529,356.13988884418563,356.13988884418563,,356.2043116821774,space,1,0.060966833837937884,None,,,,,,,,,,,,,,,,,,,,,,,,,,,,,,,,,,,,,,,,,,,,,,,,,,,,,,,,,,,,,,002,001,2023-11-09_17h57.35.914,untitled,2023.2.2,60.068422809995745,2023-11-09 17h57.44.814980 +0800,
1,condition_1/leftstar.PNG,space,,,,,1,23,48,16,,,,,,,,,356.31908395157507,,,,,,,,,,,,,,,,,,,,,,,,,,,,,,,,,,,,,,,,,,,,,356.2051313639138,356.31908395157507,356.7196294846251,356.7196412029491,357.21984627361803,357.72805195484193,357.5039510282229,357.5039756667502,358.8237618163523,358.8237618163523,,359.4704149879167,space,1,0.6416139917989767,None,,,,,,,,,,,,,,,,,,,,,,,,,,,,,,,,,,,,,,,,,,,,,,,,,,,,,,,,,,,,,,002,001,2023-11-09_17h57.35.914,untitled,2023.2.2,60.068422809995745,2023-11-09 17h57.44.814980 +0800,
8,condition_1/leftstar.PNG,left,,,,,1,24,49,2,,,,,,,,,359.57307321458575,,,,,,,,,,,,,,,,,,,,,,,,,,,,,,,,,,,,,,,,,,,,,359.47099549565655,359.57307321458575,359.9864518147026,359.98646864101397,360.4698461985006,360.96557006190596,360.7534134125533,360.75342543134707,362.090073047224,362.090073047224,,362.5874305651748,left,1,0.49445678207007404,None,,,,,,,,,,,,,,,,,,,,,,,,,,,,,,,,,,,,,,,,,,,,,,,,,,,,,,,,,,,,,,002,001,2023-11-09_17h57.35.914,untitled,2023.2.2,60.068422809995745,2023-11-09 17h57.44.814980 +0800,
,,,,,,,,,,,,,,,,,,,,,,,,,,,,,,,,,,,,,,,,,,,,,,,,,,,,,,,,,,,,,,,,,,,,,,,,,,,,,,,,362.58795698834274,362.60357961744785,362.60357961744785,366.18758272310424,space,3.5733045763661266,None,,,,,,,,,,,,,,,,,,,,,,,,,,,,,,,,,,,,,,,,,,,,,,,,,,,,,,,002,001,2023-11-09_17h57.35.914,untitled,2023.2.2,60.068422809995745,2023-11-09 17h57.44.814980 +0800,
,,,,,,,,,,,,,,,,,,,,,,,,,,,,,,,,,,,,,,,,,,,,,,,,,,,,,,,,,,,,,,,,,,,,,,,,,,,,,,,,,,,,,,,366.1876289954603,366.20288895746285,366.20288895746285,400.35463794735824,space,34.15015800206788,None,,,,,,,,,,,,,,,,,,,,,,,,,,,,,,,,,,,,,,,,,,,,,,,,002,001,2023-11-09_17h57.35.914,untitled,2023.2.2,60.068422809995745,2023-11-09 17h57.44.814980 +0800,
2,test2/leftstar.PNG,left,,,,,,,,,0,0,0,4,,,,,400.49931868462727,,,,,,,,,,,,,,,,,,,,,,,,,,,,,,,,,,,,,,,,,,,,,,,,,,,,,,,,,,,,,,,,,,,,,,,,,,,400.36527427939063,400.49931868462727,400.87012731808727,400.8701531584941,401.36996401272677,401.8819907689656,401.65423552809534,401.65426527461,402.9840612766184,402.9840612766184,403.6205639758891,left,0.6333327424092658,None,,,,,,,,,,,,,,,,,,,,,,,,,,,,,,,,,,002,001,2023-11-09_17h57.35.914,untitled,2023.2.2,60.068422809995745,2023-11-09 17h57.44.814980 +0800,
8,test2/rightstar.PNG,space,,,,,,,,,0,1,1,5,,,,,403.7338942905021,,,,,,,,,,,,,,,,,,,,,,,,,,,,,,,,,,,,,,,,,,,,,,,,,,,,,,,,,,,,,,,,,,,,,,,,,,,403.6212253100173,403.7338942905021,404.13663745999634,404.13665729100603,404.63663370412314,405.14538323576585,404.92073335074065,404.92076009255675,406.2405645708195,406.2405645708195,407.0372219038911,space,0.7844714780501363,None,407.13397649905164,,,,,,,,,,,,,,,,,,,,,,,,,,,,,,,,,002,001,2023-11-09_17h57.35.914,untitled,2023.2.2,60.068422809995745,2023-11-09 17h57.44.814980 +0800,
1,test2/blank.PNG,space,,,,,,,,,0,2,2,2,,,,,407.13397649905164,,,,,,,,,,,,,,,,,,,,,,,,,,,,,,,,,,,,,,,,,,,,,,,,,,,,,,,,,,,,,,,,,,,,,,,,,,,407.03767471194715,407.13397649905164,407.55314815777433,407.553166185965,408.053195181305,408.428461585381,408.3372437480489,408.3372668842269,409.6538881849549,409.6538881849549,413.2377122105838,space,3.57085785042068,None,410.45311363378914,,,,,,,,,,,,,,,,,,,,,,,,,,,,,,,,,002,001,2023-11-09_17h57.35.914,untitled,2023.2.2,60.068422809995745,2023-11-09 17h57.44.814980 +0800,
1,test2/leftstar.PNG,left,,,,,,,,,0,3,3,0,,,,,413.34418610381067,,,,,,,,,,,,,,,,,,,,,,,,,,,,,,,,,,,,,,,,,,,,,,,,,,,,,,,,,,,,,,,,,,,,,,,,,,,413.23842011753777,413.34418610381067,413.75335001341614,413.75337435147344,414.2533089992821,414.77110687982804,414.5370435750383,414.5370703168546,415.86262248277626,415.86262248277626,417.10437721465064,left,1.2266693428514372,None,416.66974277678014,,,,,,,,,,,,,,,,,,,,,,,,,,,,,,,,,002,001,2023-11-09_17h57.35.914,untitled,2023.2.2,60.068422809995745,2023-11-09 17h57.44.814980 +0800,
9,test2/rightstar.PNG,space,,,,,,,,,0,4,4,3,,,,,417.2156964845931,,,,,,,,,,,,,,,,,,,,,,,,,,,,,,,,,,,,,,,,,,,,,,,,,,,,,,,,,,,,,,,,,,,,,,,,,,,417.1050616849568,417.2156964845931,417.61965385272947,417.619666472463,418.1197925195629,418.63025863542816,418.40439455176056,418.4044291057928,419.7239817903255,419.7239817903255,420.37124251191585,space,0.6363912249582881,None,,,,,,,,,,,,,,,,,,,,,,,,,,,,,,,,,,002,001,2023-11-09_17h57.35.914,untitled,2023.2.2,60.068422809995745,2023-11-09 17h57.44.814980 +0800,
8,test2/rightstar.PNG,space,,,,,,,,,0,5,5,1,,,,,420.4796616469173,,,,,,,,,,,,,,,,,,,,,,,,,,,,,,,,,,,,,,,,,,,,,,,,,,,,,,,,,,,,,,,,,,,,,,,,,,,420.37208082278266,420.4796616469173,420.8867454037879,420.8867658357374,421.3864805396199,421.8927833453172,421.6706510971205,421.6706751347083,422.990701960656,422.990701960656,423.4704813917524,space,0.47412669190816814,None,,,,,,,,,,,,,,,,,,,,,,,,,,,,,,,,,,002,001,2023-11-09_17h57.35.914,untitled,2023.2.2,60.068422809995745,2023-11-09 17h57.44.814980 +0800,
,,,,,,,,,,,,,,,,,,,,,,,,,,,,,,,,,,,,,,,,,,,,,,,,,,,,,,,,,,,,,,,,,,,,,,,,,,,,,,,,,,,,,,,,,,,,,,,,,,,,,,,,,,,,,423.4707872700542,423.48647480064574,423.48647480064574,424.48657395569467,427.73773249229816,space,4.24315071477281,None,,,,,,,,,,,,,,,,,,,,,,,,,002,001,2023-11-09_17h57.35.914,untitled,2023.2.2,60.068422809995745,2023-11-09 17h57.44.814980 +0800,
,,,,,,,,,,,,,,,,,,,,,,,,,,,,,,,,,,,,,,,,,,,,,,,,,,,,,,,,,,,,,,,,,,,,,,,,,,,,,,,,,,,,,,,,,,,,,,,,,,,,,,,,,,,,,,,,,,,,,427.7377844735813,427.7532268207797,427.7532268207797,428.75334069885093,431.920939473054,space,4.151474059987777,None,,,,,,,,,,,,,,,,,002,001,2023-11-09_17h57.35.914,untitled,2023.2.2,60.068422809995745,2023-11-09 17h57.44.814980 +0800,
1,condition_2/leftstar.PNG,left,,,,,,,,,,,,,0,0,0,16,432.08252103814743,,,,,,,,,,,,,,,,,,,,,,,,,,,,,,,,,,,,,,,,,,,,,,,,,,,,,,,,,,,,,,,,,,,,,,,,,,,,,,,,,,,,,,,,,,,,,,,,,,,,,,,,,,431.9497996016371,432.08252103814743,432.4367734826949,432.43679151088554,432.9367628160155,433.4515559981144,433.2208065752418,433.22083542034693,434.5460732948111,434.5460732948111,434.9887720428435,left,1,0.43081366332535254,None,,002,001,2023-11-09_17h57.35.914,untitled,2023.2.2,60.068422809995745,2023-11-09 17h57.44.814980 +0800,
1,condition_2/leftstar.PNG,left,,,,,,,,,,,,,0,1,1,0,435.1007685718157,,,,,,,,,,,,,,,,,,,,,,,,,,,,,,,,,,,,,,,,,,,,,,,,,,,,,,,,,,,,,,,,,,,,,,,,,,,,,,,,,,,,,,,,,,,,,,,,,,,,,,,,,,434.9908071251016,435.1007685718157,435.5033116283935,435.50333266128246,436.0031885859919,436.5097621150194,436.28730746267934,436.28733089932734,437.6077822891657,437.6077822891657,438.52177640175955,left,1,0.9051972569507143,None,438.4201136316858,002,001,2023-11-09_17h57.35.914,untitled,2023.2.2,60.068422809995745,2023-11-09 17h57.44.814980 +0800,
8,condition_2/rightstar.PNG,space,,,,,,,,,,,,,0,2,2,23,438.6343928000215,,,,,,,,,,,,,,,,,,,,,,,,,,,,,,,,,,,,,,,,,,,,,,,,,,,,,,,,,,,,,,,,,,,,,,,,,,,,,,,,,,,,,,,,,,,,,,,,,,,,,,,,,,438.5230738305488,438.6343928000215,439.03658310500145,439.03660173413164,439.53665536799895,440.0364133395392,439.82032173710036,439.82033555871317,441.1405387604598,441.1405387604598,441.9207183272483,space,1,0.7726524967090427,None,,002,001,2023-11-09_17h57.35.914,untitled,2023.2.2,60.068422809995745,2023-11-09 17h57.44.814980 +0800,
2,condition_2/leftstar.PNG,left,,,,,,,,,,,,,0,3,3,17,442.0200782964321,,,,,,,,,,,,,,,,,,,,,,,,,,,,,,,,,,,,,,,,,,,,,,,,,,,,,,,,,,,,,,,,,,,,,,,,,,,,,,,,,,,,,,,,,,,,,,,,,,,,,,,,,,441.92129282559154,442.0200782964321,442.43652078755554,442.4365409190352,442.9365885435054,443.4400672331326,443.2205322462735,443.22055598339125,444.52487875290603,444.52487875290603,445.07054791577593,left,1,0.5400909402032994,None,,002,001,2023-11-09_17h57.35.914,untitled,2023.2.2,60.068422809995745,2023-11-09 17h57.44.814980 +0800,
9,condition_2/blank.PNG,space,,,,,,,,,,,,,0,4,4,11,445.16896380870776,,,,,,,,,,,,,,,,,,,,,,,,,,,,,,,,,,,,,,,,,,,,,,,,,,,,,,,,,,,,,,,,,,,,,,,,,,,,,,,,,,,,,,,,,,,,,,,,,,,,,,,,,,445.0710400853816,445.16896380870776,445.5864149770998,445.58646816026226,446.0701230514155,446.4584767200472,446.35409890445703,446.3541274490922,447.66998555641453,447.66998555641453,448.78794280616603,space,1,1.1146971519362978,None,448.4700303865154,002,001,2023-11-09_17h57.35.914,untitled,2023.2.2,60.068422809995745,2023-11-09 17h57.44.814980 +0800,
9,condition_2/leftstar.PNG,space,,,,,,,,,,,,,0,5,5,19,448.90006433059375,,,,,,,,,,,,,,,,,,,,,,,,,,,,,,,,,,,,,,,,,,,,,,,,,,,,,,,,,,,,,,,,,,,,,,,,,,,,,,,,,,,,,,,,,,,,,,,,,,,,,,,,,,448.78891993410093,448.90006433059375,449.30331228942714,449.3033309185573,449.80316370708874,450.3087847467084,450.08736491251375,450.0873910533903,451.4074647526338,451.4074647526338,452.48773346882535,space,1,1.0736785110877918,None,452.21982764448785,002,001,2023-11-09_17h57.35.914,untitled,2023.2.2,60.068422809995745,2023-11-09 17h57.44.814980 +0800,
9,condition_2/rightstar.PNG,space,,,,,,,,,,,,,0,6,6,15,452.5957328474535,,,,,,,,,,,,,,,,,,,,,,,,,,,,,,,,,,,,,,,,,,,,,,,,,,,,,,,,,,,,,,,,,,,,,,,,,,,,,,,,,,,,,,,,,,,,,,,,,,,,,,,,,,452.48859371399067,452.5957328474535,453.00336526226056,453.00338419186096,453.50330591946636,454.0073065252136,453.7875500920791,453.7875786367142,455.1059739114053,455.1059739114053,456.0039905400074,space,1,0.8952192543481488,None,455.91997917143044,002,001,2023-11-09_17h57.35.914,untitled,2023.2.2,60.068422809995745,2023-11-09 17h57.44.814980 +0800,
1,condition_2/blank.PNG,space,,,,,,,,,,,,,0,7,7,8,456.10275888406704,,,,,,,,,,,,,,,,,,,,,,,,,,,,,,,,,,,,,,,,,,,,,,,,,,,,,,,,,,,,,,,,,,,,,,,,,,,,,,,,,,,,,,,,,,,,,,,,,,,,,,,,,,456.0044400428951,456.10275888406704,456.52001324471075,456.52003187384116,457.019962615542,457.3792046623305,457.3041217551886,457.30415390546204,458.6032506029678,458.6032506029678,459.6875795681708,space,1,1.0697444594113676,None,459.4032825128654,002,001,2023-11-09_17h57.35.914,untitled,2023.2.2,60.068422809995745,2023-11-09 17h57.44.814980 +0800,
8,condition_2/rightstar.PNG,space,,,,,,,,,,,,,0,8,8,6,459.7838489045321,,,,,,,,,,,,,,,,,,,,,,,,,,,,,,,,,,,,,,,,,,,,,,,,,,,,,,,,,,,,,,,,,,,,,,,,,,,,,,,,,,,,,,,,,,,,,,,,,,,,,,,,,,459.6882844704264,459.7838489045321,460.2034547421804,460.2034763760091,460.7033286950805,461.20722804249,460.987519384061,460.9875473277564,462.3059993912482,462.3059993912482,463.35487742182454,space,1,1.0476049398444047,None,463.11973603123215,002,001,2023-11-09_17h57.35.914,untitled,2023.2.2,60.068422809995745,2023-11-09 17h57.44.814980 +0800,
8,condition_2/rightstar.PNG,space,,,,,,,,,,,,,0,9,9,14,463.4584319500402,,,,,,,,,,,,,,,,,,,,,,,,,,,,,,,,,,,,,,,,,,,,,,,,,,,,,,,,,,,,,,,,,,,,,,,,,,,,,,,,,,,,,,,,,,,,,,,,,,,,,,,,,,463.35578003323803,463.4584319500402,463.86998279209206,463.87000142122247,464.37003312079105,464.874289726846,464.65424364078103,464.65427188494664,465.97369266321743,465.97369266321743,467.12046677389435,space,1,1.1385986266725467,None,466.7864022972724,002,001,2023-11-09_17h57.35.914,untitled,2023.2.2,60.068422809995745,2023-11-09 17h57.44.814980 +0800,
2,condition_2/rightstar.PNG,right,,,,,,,,,,,,,0,10,10,13,467.21946107127724,,,,,,,,,,,,,,,,,,,,,,,,,,,,,,,,,,,,,,,,,,,,,,,,,,,,,,,,,,,,,,,,,,,,,,,,,,,,,,,,,,,,,,,,,,,,,,,,,,,,,,,,,,467.12094422047767,467.21946107127724,467.6370753947949,467.6371072445984,468.12033937468027,468.62943564852367,468.40468690891953,468.40472386671036,469.7229370566756,469.7229370566756,471.20456648060576,right,1,1.4784423402873017,None,470.5369429176403,002,001,2023-11-09_17h57.35.914,untitled,2023.2.2,60.068422809995745,2023-11-09 17h57.44.814980 +0800,
9,condition_2/leftstar.PNG,space,,,,,,,,,,,,,0,11,11,24,471.3211791278022,,,,,,,,,,,,,,,,,,,,,,,,,,,,,,,,,,,,,,,,,,,,,,,,,,,,,,,,,,,,,,,,,,,,,,,,,,,,,,,,,,,,,,,,,,,,,,,,,,,,,,,,,,471.2054663877907,471.3211791278022,471.71999545689596,471.7200128841471,472.2201909125299,472.71726148177913,472.50385007035516,472.50386389196797,473.8235938537091,473.8235938537091,475.27123292692795,space,1,1.4419280428805905,None,474.63643299026694,002,001,2023-11-09_17h57.35.914,untitled,2023.2.2,60.068422809995745,2023-11-09 17h57.44.814980 +0800,
8,condition_2/blank.PNG,space,,,,,,,,,,,,,0,12,12,10,475.3743148160779,,,,,,,,,,,,,,,,,,,,,,,,,,,,,,,,,,,,,,,,,,,,,,,,,,,,,,,,,,,,,,,,,,,,,,,,,,,,,,,,,,,,,,,,,,,,,,,,,,,,,,,,,,475.2720961767916,475.3743148160779,475.7866856403359,475.7867033680566,476.2867185417838,476.67367262187895,476.5705763101762,476.5706006482337,477.8863583986281,477.8863583986281,480.77127364059174,space,1,2.8827413426374733,None,478.68658651533406,002,001,2023-11-09_17h57.35.914,untitled,2023.2.2,60.068422809995745,2023-11-09 17h57.44.814980 +0800,
2,condition_2/blank.PNG,space,,,,,,,,,,,,,0,13,13,20,480.8709779482176,,,,,,,,,,,,,,,,,,,,,,,,,,,,,,,,,,,,,,,,,,,,,,,,,,,,,,,,,,,,,,,,,,,,,,,,,,,,,,,,,,,,,,,,,,,,,,,,,,,,,,,,,,480.77209181997887,480.8709779482176,481.2864943912798,481.28650971524166,481.7869052837923,482.1690136867019,482.07121555977096,482.07124921239347,483.3865496476842,483.3865496476842,486.1379126540171,space,1,2.7431860199794755,None,484.1865638298609,002,001,2023-11-09_17h57.35.914,untitled,2023.2.2,60.068422809995745,2023-11-09 17h57.44.814980 +0800,
9,condition_2/rightstar.PNG,space,,,,,,,,,,,,,0,14,14,7,486.24813430761697,,,,,,,,,,,,,,,,,,,,,,,,,,,,,,,,,,,,,,,,,,,,,,,,,,,,,,,,,,,,,,,,,,,,,,,,,,,,,,,,,,,,,,,,,,,,,,,,,,,,,,,,,,486.1387692935443,486.24813430761697,486.65413637304664,486.65415259841825,487.1534012735715,487.66275264631304,487.43764033819684,487.43766738048294,488.7653874363343,488.7653874363343,489.25397333810884,space,1,0.48359660000323856,None,,002,001,2023-11-09_17h57.35.914,untitled,2023.2.2,60.068422809995745,2023-11-09 17h57.44.814980 +0800,
9,condition_2/leftstar.PNG,space,,,,,,,,,,,,,0,15,15,3,489.3560381368345,,,,,,,,,,,,,,,,,,,,,,,,,,,,,,,,,,,,,,,,,,,,,,,,,,,,,,,,,,,,,,,,,,,,,,,,,,,,,,,,,,,,,,,,,,,,,,,,,,,,,,,,,,489.25444838093335,489.3560381368345,489.7700846814164,489.77010361101657,490.2702107285163,490.7786240344026,490.5544852485832,490.55451950214547,491.8738549469806,491.8738549469806,492.8048280095586,space,1,0.9274191052550123,None,492.68641945410036,002,001,2023-11-09_17h57.35.914,untitled,2023.2.2,60.068422809995745,2023-11-09 17h57.44.814980 +0800,
2,condition_2/blank.PNG,space,,,,,,,,,,,,,0,16,16,9,492.9201474345434,,,,,,,,,,,,,,,,,,,,,,,,,,,,,,,,,,,,,,,,,,,,,,,,,,,,,,,,,,,,,,,,,,,,,,,,,,,,,,,,,,,,,,,,,,,,,,,,,,,,,,,,,,492.80582226427464,492.9201474345434,493.32005657246236,493.32007430018325,493.82007174618957,494.17811491829775,494.10405961802485,494.10409567440615,495.42019836418217,495.42019836418217,496.82162697810577,space,1,1.3972698108032091,None,496.2201785932664,002,001,2023-11-09_17h57.35.914,untitled,2023.2.2,60.068422809995745,2023-11-09 17h57.44.814980 +0800,
2,condition_2/rightstar.PNG,left,,,,,,,,,,,,,0,17,17,5,496.93191593695065,,,,,,,,,,,,,,,,,,,,,,,,,,,,,,,,,,,,,,,,,,,,,,,,,,,,,,,,,,,,,,,,,,,,,,,,,,,,,,,,,,,,,,,,,,,,,,,,,,,,,,,,,,496.8225818712722,496.93191593695065,497.3366106580861,497.33662658298795,497.836995710192,498.3418496502982,498.1211749813183,498.1212089344108,499.44055669850945,499.44055669850945,501.52121241986106,right,0,2.0646085283556204,None,500.2534096566801,002,001,2023-11-09_17h57.35.914,untitled,2023.2.2,60.068422809995745,2023-11-09 17h57.44.814980 +0800,
8,condition_2/leftstar.PNG,space,,,,,,,,,,,,,0,18,18,2,501.6336046676188,,,,,,,,,,,,,,,,,,,,,,,,,,,,,,,,,,,,,,,,,,,,,,,,,,,,,,,,,,,,,,,,,,,,,,,,,,,,,,,,,,,,,,,,,,,,,,,,,,,,,,,,,,501.52201797951466,501.6336046676188,502.0368871804842,502.0369058096146,502.5367665418414,503.04246149704295,502.8209926862635,502.82102093042886,504.13953729446735,504.13953729446735,505.75474028738745,space,1,1.5983310102005817,None,504.95330037579765,002,001,2023-11-09_17h57.35.914,untitled,2023.2.2,60.068422809995745,2023-11-09 17h57.44.814980 +0800,
1,condition_2/rightstar.PNG,right,,,,,,,,,,,,,0,19,19,4,505.8658585430037,,,,,,,,,,,,,,,,,,,,,,,,,,,,,,,,,,,,,,,,,,,,,,,,,,,,,,,,,,,,,,,,,,,,,,,,,,,,,,,,,,,,,,,,,,,,,,,,,,,,,,,,,,505.7556738471949,505.8658585430037,506.2701452260901,506.27016565803956,506.7703319680986,507.27220674969453,507.05459206561295,507.05462692011497,508.3756930712557,508.3756930712557,509.8871967094947,right,1,1.497359621239866,None,509.1871689761281,002,001,2023-11-09_17h57.35.914,untitled,2023.2.2,60.068422809995745,2023-11-09 17h57.44.814980 +0800,
1,condition_2/rightstar.PNG,right,,,,,,,,,,,,,0,20,20,12,509.9828663080459,,,,,,,,,,,,,,,,,,,,,,,,,,,,,,,,,,,,,,,,,,,,,,,,,,,,,,,,,,,,,,,,,,,,,,,,,,,,,,,,,,,,,,,,,,,,,,,,,,,,,,,,,,509.88764741426166,509.9828663080459,510.4037548514614,510.4037788890489,510.8870059111432,511.3940577881633,511.17092677820324,511.1709541209591,512.4897985980679,512.4897985980679,513.9381900477777,right,1,1.4320020215611748,None,513.3030361576398,002,001,2023-11-09_17h57.35.914,untitled,2023.2.2,60.068422809995745,2023-11-09 17h57.44.814980 +0800,
8,condition_2/leftstar.PNG,space,,,,,,,,,,,,,0,21,21,18,514.0405814572248,,,,,,,,,,,,,,,,,,,,,,,,,,,,,,,,,,,,,,,,,,,,,,,,,,,,,,,,,,,,,,,,,,,,,,,,,,,,,,,,,,,,,,,,,,,,,,,,,,,,,,,,,,513.9391725841699,514.0405814572248,514.453386760878,514.4534032867195,514.9534716436092,515.449159450633,515.2372891490425,515.2373026701855,516.5585671314234,516.5585671314234,518.038197529477,left,0,1.474861641148209,None,517.3703915813157,002,001,2023-11-09_17h57.35.914,untitled,2023.2.2,60.068422809995745,2023-11-09 17h57.44.814980 +0800,
1,condition_2/rightstar.PNG,right,,,,,,,,,,,,,0,22,22,21,518.1535436962779,,,,,,,,,,,,,,,,,,,,,,,,,,,,,,,,,,,,,,,,,,,,,,,,,,,,,,,,,,,,,,,,,,,,,,,,,,,,,,,,,,,,,,,,,,,,,,,,,,,,,,,,,,518.0391827700976,518.1535436962779,518.5533614913641,518.553379219085,519.0534689093336,519.5571660405376,519.3374558797593,519.3374886309723,520.6569229303864,520.6569229303864,521.671381839783,right,1,1.008023446262996,None,521.4700652410174,002,001,2023-11-09_17h57.35.914,untitled,2023.2.2,60.068422809995745,2023-11-09 17h57.44.814980 +0800,
2,condition_2/leftstar.PNG,left,,,,,,,,,,,,,0,23,23,1,521.7827888469201,,,,,,,,,,,,,,,,,,,,,,,,,,,,,,,,,,,,,,,,,,,,,,,,,,,,,,,,,,,,,,,,,,,,,,,,,,,,,,,,,,,,,,,,,,,,,,,,,,,,,,,,,,521.6722955685807,521.7827888469201,522.18670084411,522.186714365253,522.6869521871351,523.189569730187,522.9704725278918,522.9704893542032,524.2909040867205,524.2909040867205,525.7212574302437,left,1,1.4223097657807102,None,525.103254358841,002,001,2023-11-09_17h57.35.914,untitled,2023.2.2,60.068422809995745,2023-11-09 17h57.44.814980 +0800,
2,condition_2/leftstar.PNG,left,,,,,,,,,,,,,0,24,24,22,525.8278878682597,,,,,,,,,,,,,,,,,,,,,,,,,,,,,,,,,,,,,,,,,,,,,,,,,,,,,,,,,,,,,,,,,,,,,,,,,,,,,,,,,,,,,,,,,,,,,,,,,,,,,,,,,,525.722073205872,525.8278878682597,526.2368213174941,526.2368354395769,526.7367280216074,527.2324972559593,527.020380569096,527.0203943907088,528.3405552262072,528.3405552262072,530.5547743005739,left,1,2.213050847610475,None,529.1531353577591,002,001,2023-11-09_17h57.35.914,untitled,2023.2.2,60.068422809995745,2023-11-09 17h57.44.814980 +0800,
1,condition_2/rightstar.PNG,right,,,,,,,,,,,,,1,0,25,12,530.664047070404,,,,,,,,,,,,,,,,,,,,,,,,,,,,,,,,,,,,,,,,,,,,,,,,,,,,,,,,,,,,,,,,,,,,,,,,,,,,,,,,,,,,,,,,,,,,,,,,,,,,,,,,,,530.5556063015738,530.664047070404,531.0703090422494,531.0703333803069,531.570217248712,532.0690131158092,531.8539349981568,531.8539479183601,533.173850349792,533.173850349792,534.4878843046872,right,1,1.3073148482280885,None,533.9867567915951,002,001,2023-11-09_17h57.35.914,untitled,2023.2.2,60.068422809995745,2023-11-09 17h57.44.814980 +0800,
8,condition_2/leftstar.PNG,space,,,,,,,,,,,,,1,1,26,18,534.5918763169968,,,,,,,,,,,,,,,,,,,,,,,,,,,,,,,,,,,,,,,,,,,,,,,,,,,,,,,,,,,,,,,,,,,,,,,,,,,,,,,,,,,,,,,,,,,,,,,,,,,,,,,,,,534.4886622211152,534.5918763169968,535.003534727253,535.0035536568532,535.5035529056786,536.0102808762063,535.7877889656056,535.787817209771,537.1063651231432,537.1063651231432,538.5710762919978,space,1,1.4547448845758026,None,537.9199815751892,002,001,2023-11-09_17h57.35.914,untitled,2023.2.2,60.068422809995745,2023-11-09 17h57.44.814980 +0800,
1,condition_2/leftstar.PNG,left,,,,,,,,,,,,,1,2,27,16,538.6778088897611,,,,,,,,,,,,,,,,,,,,,,,,,,,,,,,,,,,,,,,,,,,,,,,,,,,,,,,,,,,,,,,,,,,,,,,,,,,,,,,,,,,,,,,,,,,,,,,,,,,,,,,,,,538.5718139454666,538.6778088897611,539.0869196162039,539.0869406490931,539.5871586399653,540.0957393075553,539.8716825500035,539.8717264186009,541.1908860885767,541.1908860885767,542.8375572883317,left,1,1.6416329213991503,None,542.0033039664124,002,001,2023-11-09_17h57.35.914,untitled,2023.2.2,60.068422809995745,2023-11-09 17h57.44.814980 +0800,
2,condition_2/blank.PNG,space,,,,,,,,,,,,,1,3,28,9,542.9328666235392,,,,,,,,,,,,,,,,,,,,,,,,,,,,,,,,,,,,,,,,,,,,,,,,,,,,,,,,,,,,,,,,,,,,,,,,,,,,,,,,,,,,,,,,,,,,,,,,,,,,,,,,,,542.837999880413,542.9328666235392,543.3535298145712,543.3535475422918,543.836926301658,544.2086141098837,544.1204703795324,544.1204845016152,545.4371517742295,545.4371517742295,549.2880198766811,space,1,3.8447835880967887,None,546.2371302004947,002,001,2023-11-09_17h57.35.914,untitled,2023.2.2,60.068422809995745,2023-11-09 17h57.44.814980 +0800,
2,condition_2/leftstar.PNG,left,,,,,,,,,,,,,1,4,29,1,549.3926053169341,,,,,,,,,,,,,,,,,,,,,,,,,,,,,,,,,,,,,,,,,,,,,,,,,,,,,,,,,,,,,,,,,,,,,,,,,,,,,,,,,,,,,,,,,,,,,,,,,,,,,,,,,,549.2888266382142,549.3926053169341,549.8035630315123,549.8035804587635,550.3035472568456,550.8159378820662,550.5875011755884,550.5875438423063,551.9112970952679,551.9112970952679,557.3547893841601,left,1,5.434066249394164,None,552.7202995323789,002,001,2023-11-09_17h57.35.914,untitled,2023.2.2,60.068422809995745,2023-11-09 17h57.44.814980 +0800,
9,condition_2/leftstar.PNG,space,,,,,,,,,,,,,1,5,30,24,557.4593519887048,,,,,,,,,,,,,,,,,,,,,,,,,,,,,,,,,,,,,,,,,,,,,,,,,,,,,,,,,,,,,,,,,,,,,,,,,,,,,,,,,,,,,,,,,,,,,,,,,,,,,,,,,,557.3557448782663,557.4593519887048,557.8701717876243,557.8701868111166,558.3703987925919,558.8864208963557,558.6547307023993,558.6547658573713,559.9740982975079,559.9740982975079,561.3716628692287,space,1,1.3945481549499164,None,560.7868812462048,002,001,2023-11-09_17h57.35.914,untitled,2023.2.2,60.068422809995745,2023-11-09 17h57.44.814980 +0800,
2,condition_2/leftstar.PNG,left,,,,,,,,,,,,,1,6,31,22,561.4801243704783,,,,,,,,,,,,,,,,,,,,,,,,,,,,,,,,,,,,,,,,,,,,,,,,,,,,,,,,,,,,,,,,,,,,,,,,,,,,,,,,,,,,,,,,,,,,,,,,,,,,,,,,,,561.3726463070304,561.4801243704783,561.8868568781004,561.8868743053513,562.3870021552702,562.9009819654996,562.6710263839566,562.671054628122,563.9908696228292,563.9908696228292,565.1880703856621,left,1,1.1939271438748165,None,564.8032289090452,002,001,2023-11-09_17h57.35.914,untitled,2023.2.2,60.068422809995745,2023-11-09 17h57.44.814980 +0800,
9,condition_2/blank.PNG,space,,,,,,,,,,,,,1,7,32,11,565.2917102473139,,,,,,,,,,,,,,,,,,,,,,,,,,,,,,,,,,,,,,,,,,,,,,,,,,,,,,,,,,,,,,,,,,,,,,,,,,,,,,,,,,,,,,,,,,,,,,,,,,,,,,,,,,565.1888984805541,565.2917102473139,565.7036883574847,565.7037084889641,566.2034577468789,566.5901687468695,566.4876406236433,566.4876667645196,567.8037330974446,567.8037330974446,568.6376105315883,space,1,0.8216086494451247,None,568.6036114672513,002,001,2023-11-09_17h57.35.914,untitled,2023.2.2,60.068422809995745,2023-11-09 17h57.44.814980 +0800,
9,condition_2/rightstar.PNG,space,,,,,,,,,,,,,1,8,33,7,568.7320473023667,,,,,,,,,,,,,,,,,,,,,,,,,,,,,,,,,,,,,,,,,,,,,,,,,,,,,,,,,,,,,,,,,,,,,,,,,,,,,,,,,,,,,,,,,,,,,,,,,,,,,,,,,,568.6380702504507,568.7320473023667,569.1535070389568,569.1535205600999,569.6535696869196,570.1480321779165,569.937193088833,569.9372072109159,571.2415855673516,571.2415855673516,572.9046488994841,space,1,1.647690994407867,None,572.0534577919493,002,001,2023-11-09_17h57.35.914,untitled,2023.2.2,60.068422809995745,2023-11-09 17h57.44.814980 +0800,
8,condition_2/leftstar.PNG,space,,,,,,,,,,,,,1,9,34,2,573.012660897846,,,,,,,,,,,,,,,,,,,,,,,,,,,,,,,,,,,,,,,,,,,,,,,,,,,,,,,,,,,,,,,,,,,,,,,,,,,,,,,,,,,,,,,,,,,,,,,,,,,,,,,,,,572.905459867595,573.012660897846,573.420304730507,573.4203269652758,573.9202964675865,574.4152571375862,574.2040995504672,574.2041130716102,575.5243967992751,575.5243967992751,576.9886350285942,space,1,1.460389811548339,None,576.3370433346624,002,001,2023-11-09_17h57.35.914,untitled,2023.2.2,60.068422809995745,2023-11-09 17h57.44.814980 +0800,
1,condition_2/rightstar.PNG,right,,,,,,,,,,,,,1,10,35,21,577.091971115233,,,,,,,,,,,,,,,,,,,,,,,,,,,,,,,,,,,,,,,,,,,,,,,,,,,,,,,,,,,,,,,,,,,,,,,,,,,,,,,,,,,,,,,,,,,,,,,,,,,,,,,,,,576.9896482129107,577.091971115233,577.5038578825711,577.5038819201586,578.0036456006258,578.5089484426799,578.2878419985332,578.2878696417588,579.6075614438298,579.6075614438298,580.8881407857468,right,1,1.273686263209811,None,580.4200198850945,002,001,2023-11-09_17h57.35.914,untitled,2023.2.2,60.068422809995745,2023-11-09 17h57.44.814980 +0800,
8,condition_2/rightstar.PNG,space,,,,,,,,,,,,,1,11,36,23,580.9950449517912,,,,,,,,,,,,,,,,,,,,,,,,,,,,,,,,,,,,,,,,,,,,,,,,,,,,,,,,,,,,,,,,,,,,,,,,,,,,,,,,,,,,,,,,,,,,,,,,,,,,,,,,,,580.8889941201057,580.9950449517912,581.403656597822,581.4036761283619,581.9040284292548,582.422591906965,582.1881214655357,582.188155719098,583.507565079515,583.507565079515,586.0213405702498,space,1,2.5015103116743376,None,584.3203146760591,002,001,2023-11-09_17h57.35.914,untitled,2023.2.2,60.068422809995745,2023-11-09 17h57.44.814980 +0800,
9,condition_2/leftstar.PNG,space,,,,,,,,,,,,,1,12,37,19,586.1436275904632,,,,,,,,,,,,,,,,,,,,,,,,,,,,,,,,,,,,,,,,,,,,,,,,,,,,,,,,,,,,,,,,,,,,,,,,,,,,,,,,,,,,,,,,,,,,,,,,,,,,,,,,,,586.0221545430591,586.1436275904632,586.536953434085,586.5369720632152,587.0369181288781,587.5425166332595,587.3210766675852,587.3211007051727,588.6408126387232,588.6408126387232,589.9715884728951,left,0,1.3210406112038982,None,589.4536379536682,002,001,2023-11-09_17h57.35.914,untitled,2023.2.2,60.068422809995745,2023-11-09 17h57.44.814980 +0800,
8,condition_2/rightstar.PNG,space,,,,,,,,,,,,,1,13,38,14,590.0857661124701,,,,,,,,,,,,,,,,,,,,,,,,,,,,,,,,,,,,,,,,,,,,,,,,,,,,,,,,,,,,,,,,,,,,,,,,,,,,,,,,,,,,,,,,,,,,,,,,,,,,,,,,,,589.9725800233825,590.0857661124701,590.4869958153565,590.4870141440169,590.9869052236984,591.494826660449,591.2710709736816,591.2710950112692,592.5916007861495,592.5916007861495,594.6886795882722,space,1,2.0811301632363666,None,593.4034850295407,002,001,2023-11-09_17h57.35.914,untitled,2023.2.2,60.068422809995745,2023-11-09 17h57.44.814980 +0800,
1,condition_2/blank.PNG,space,,,,,,,,,,,,,1,14,39,8,594.7997227264273,,,,,,,,,,,,,,,,,,,,,,,,,,,,,,,,,,,,,,,,,,,,,,,,,,,,,,,,,,,,,,,,,,,,,,,,,,,,,,,,,,,,,,,,,,,,,,,,,,,,,,,,,,594.6898643408699,594.7997227264273,595.2036329207983,595.2036518503985,595.703648995935,596.0815808680034,595.9878955723066,595.9879241169417,597.3036725527709,597.3036725527709,599.4883641550293,space,1,2.1696182320295065,None,598.1036443686994,002,001,2023-11-09_17h57.35.914,untitled,2023.2.2,60.068422809995745,2023-11-09 17h57.44.814980 +0800,
9,condition_2/leftstar.PNG,space,,,,,,,,,,,,,1,15,40,3,599.6008886095187,,,,,,,,,,,,,,,,,,,,,,,,,,,,,,,,,,,,,,,,,,,,,,,,,,,,,,,,,,,,,,,,,,,,,,,,,,,,,,,,,,,,,,,,,,,,,,,,,,,,,,,,,,599.489409489619,599.6008886095187,600.0037156100996,600.0037327368807,600.5037662392683,601.0183136370342,600.7876504490071,600.7876832002203,602.1088421965428,602.1088421965428,604.8383448197947,space,1,2.7253840830908302,None,602.9201771810581,002,001,2023-11-09_17h57.35.914,untitled,2023.2.2,60.068422809995745,2023-11-09 17h57.44.814980 +0800,
2,condition_2/rightstar.PNG,left,,,,,,,,,,,,,1,16,41,5,604.9481722569583,,,,,,,,,,,,,,,,,,,,,,,,,,,,,,,,,,,,,,,,,,,,,,,,,,,,,,,,,,,,,,,,,,,,,,,,,,,,,,,,,,,,,,,,,,,,,,,,,,,,,,,,,,604.8392639570498,604.9481722569583,605.3536313733787,605.35364789922,605.853628518915,606.3575245611564,606.1378750952865,606.1379024380424,607.4560606420259,607.4560606420259,608.9886398361118,right,0,1.5287812552487594,None,608.2702005125416,002,001,2023-11-09_17h57.35.914,untitled,2023.2.2,60.068422809995745,2023-11-09 17h57.44.814980 +0800,
8,condition_2/rightstar.PNG,space,,,,,,,,,,,,,1,17,42,6,609.0921580074764,,,,,,,,,,,,,,,,,,,,,,,,,,,,,,,,,,,,,,,,,,,,,,,,,,,,,,,,,,,,,,,,,,,,,,,,,,,,,,,,,,,,,,,,,,,,,,,,,,,,,,,,,,608.989620269215,609.0921580074764,609.5037157603344,609.5037352908744,610.0035846052472,610.5127487852756,610.2877191063667,610.2877431439542,611.6076215377987,611.6076215377987,614.3722683159658,space,1,2.7611195626602694,None,612.4204681861027,002,001,2023-11-09_17h57.35.914,untitled,2023.2.2,60.068422809995745,2023-11-09 17h57.44.814980 +0800,
9,condition_2/rightstar.PNG,space,,,,,,,,,,,,,1,18,43,15,614.4853898040367,,,,,,,,,,,,,,,,,,,,,,,,,,,,,,,,,,,,,,,,,,,,,,,,,,,,,,,,,,,,,,,,,,,,,,,,,,,,,,,,,,,,,,,,,,,,,,,,,,,,,,,,,,614.3734617821888,614.4853898040367,614.8870092163115,614.8870293477912,615.3870177797021,615.8910337094114,615.670989125696,615.6710290881852,616.9919741499784,616.9919741499784,619.3882127482746,space,1,2.393288585361006,None,617.8041847036211,002,001,2023-11-09_17h57.35.914,untitled,2023.2.2,60.068422809995745,2023-11-09 17h57.44.814980 +0800,
8,condition_2/blank.PNG,space,,,,,,,,,,,,,1,19,44,10,619.493686978328,,,,,,,,,,,,,,,,,,,,,,,,,,,,,,,,,,,,,,,,,,,,,,,,,,,,,,,,,,,,,,,,,,,,,,,,,,,,,,,,,,,,,,,,,,,,,,,,,,,,,,,,,,619.3890486553826,619.493686978328,619.9040858189953,619.9041173683288,620.4040072461307,620.7927890842911,620.688208151086,620.688244507937,622.0038517229393,622.0038517229393,623.5878374013446,space,1,1.5812889615492622,None,622.803526975131,002,001,2023-11-09_17h57.35.914,untitled,2023.2.2,60.068422809995745,2023-11-09 17h57.44.814980 +0800,
2,condition_2/rightstar.PNG,right,,,,,,,,,,,,,1,20,45,13,623.6845108696468,,,,,,,,,,,,,,,,,,,,,,,,,,,,,,,,,,,,,,,,,,,,,,,,,,,,,,,,,,,,,,,,,,,,,,,,,,,,,,,,,,,,,,,,,,,,,,,,,,,,,,,,,,623.5882842000035,623.6845108696468,624.1035797676827,624.1036101151371,624.6037343594178,625.114201076223,624.8877363533359,624.8877603909234,626.2113450803022,626.2113450803022,626.8714665121852,right,1,0.6461198375900494,None,,002,001,2023-11-09_17h57.35.914,untitled,2023.2.2,60.068422809995745,2023-11-09 17h57.44.814980 +0800,
1,condition_2/rightstar.PNG,right,,,,,,,,,,,,,1,21,46,4,626.9812464751133,,,,,,,,,,,,,,,,,,,,,,,,,,,,,,,,,,,,,,,,,,,,,,,,,,,,,,,,,,,,,,,,,,,,,,,,,,,,,,,,,,,,,,,,,,,,,,,,,,,,,,,,,,626.8722952080168,626.9812464751133,627.386935150495,627.3869510753966,627.8869298922725,628.396064626256,628.1708925246407,628.1709069471933,629.4900113307178,629.4900113307178,630.0375473127331,right,1,0.5425656098441323,None,,002,001,2023-11-09_17h57.35.914,untitled,2023.2.2,60.068422809995745,2023-11-09 17h57.44.814980 +0800,
1,condition_2/leftstar.PNG,left,,,,,,,,,,,,,1,22,47,0,630.1387888240843,,,,,,,,,,,,,,,,,,,,,,,,,,,,,,,,,,,,,,,,,,,,,,,,,,,,,,,,,,,,,,,,,,,,,,,,,,,,,,,,,,,,,,,,,,,,,,,,,,,,,,,,,,630.0380902617424,630.1387888240843,630.5537499988734,630.5537683275338,631.0372222043611,631.5535703179062,631.3211791278022,631.3212073719676,632.6411266297109,632.6411266297109,633.7551065601281,left,1,1.097121769310661,None,633.4534600755201,002,001,2023-11-09_17h57.35.914,untitled,2023.2.2,60.068422809995745,2023-11-09 17h57.44.814980 +0800,
2,condition_2/leftstar.PNG,left,,,,,,,,,,,,,1,23,48,17,633.8623520599162,,,,,,,,,,,,,,,,,,,,,,,,,,,,,,,,,,,,,,,,,,,,,,,,,,,,,,,,,,,,,,,,,,,,,,,,,,,,,,,,,,,,,,,,,,,,,,,,,,,,,,,,,,633.7561065237712,633.8623520599162,634.2708450203584,634.2708762692223,634.7702565501675,635.2661084137267,635.0545818496382,635.0545947698417,636.3738031159323,636.3738031159323,638.0884601250978,left,1,1.69893342219234,None,637.1869739711988,002,001,2023-11-09_17h57.35.914,untitled,2023.2.2,60.068422809995745,2023-11-09 17h57.44.814980 +0800,
2,condition_2/blank.PNG,space,,,,,,,,,,,,,1,24,49,20,638.20200437424,,,,,,,,,,,,,,,,,,,,,,,,,,,,,,,,,,,,,,,,,,,,,,,,,,,,,,,,,,,,,,,,,,,,,,,,,,,,,,,,,,,,,,,,,,,,,,,,,,,,,,,,,,638.0895126709636,638.20200437424,638.6038061717109,638.603823298492,639.1037251950877,639.4896183161611,639.3873945688874,639.3874098928495,640.7039046957727,640.7039046957727,641.6390167304614,space,1,0.928681980012243,None,641.5039985024584,002,001,2023-11-09_17h57.35.914,untitled,2023.2.2,60.068422809995745,2023-11-09 17h57.44.814980 +0800,
