stimuli,star,CorrectAns,trials_3.thisRepN,trials_3.thisTrialN,trials_3.thisN,trials_3.thisIndex,trials.thisRepN,trials.thisTrialN,trials.thisN,trials.thisIndex,trials_4.thisRepN,trials_4.thisTrialN,trials_4.thisN,trials_4.thisIndex,trials_2.thisRepN,trials_2.thisTrialN,trials_2.thisN,trials_2.thisIndex,thisRow.t,notes,routine_21.started,text_9.started,key_resp_8.started,routine_21.stopped,key_resp_8.keys,key_resp_8.rt,key_resp_8.duration,introduction.started,text_6.started,key_resp_5.started,introduction.stopped,key_resp_5.keys,key_resp_5.rt,key_resp_5.duration,routine_14.started,image_6.started,routine_14.stopped,routine_16.started,text_4.started,text_4.stopped,routine_16.stopped,routine_17.started,image_7.started,key_resp_3.started,image_7.stopped,routine_17.stopped,key_resp_3.keys,key_resp_3.rt,key_resp_3.duration,routine_20.started,text_8.started,key_resp_7.started,routine_20.stopped,key_resp_7.keys,key_resp_7.rt,key_resp_7.duration,routine_18.started,text_5.started,key_resp_4.started,routine_18.stopped,key_resp_4.keys,key_resp_4.rt,key_resp_4.duration,trial.started,image_3.started,trial.stopped,routine.started,text_3.started,text_3.stopped,routine.stopped,routine_1.started,image_2.started,key_resp.started,routine_1.stopped,key_resp.keys,key_resp.corr,key_resp.rt,key_resp.duration,image_2.stopped,routine_22.started,text_10.started,key_resp_9.started,routine_22.stopped,key_resp_9.keys,key_resp_9.rt,key_resp_9.duration,routine_19.started,text_7.started,key_resp_6.started,routine_19.stopped,key_resp_6.keys,key_resp_6.rt,key_resp_6.duration,routine_23.started,image_8.started,routine_23.stopped,routine_24.started,text_11.started,text_11.stopped,routine_24.stopped,routine_25.started,image_9.started,key_resp_10.started,image_9.stopped,routine_25.stopped,key_resp_10.keys,key_resp_10.rt,key_resp_10.duration,routine_26.started,text_12.started,key_resp_11.started,text_12.stopped,routine_26.stopped,key_resp_11.keys,key_resp_11.rt,key_resp_11.duration,routine_27.started,text_13.started,key_resp_12.started,text_13.stopped,routine_27.stopped,key_resp_12.keys,key_resp_12.rt,key_resp_12.duration,routine_10.started,image_4.started,routine_10.stopped,routine_11.started,text.started,text.stopped,routine_11.stopped,routine_12.started,image_5.started,key_resp_2.started,routine_12.stopped,key_resp_2.keys,key_resp_2.corr,key_resp_2.rt,key_resp_2.duration,image_5.stopped,participant,session,date,expName,psychopyVersion,frameRate,expStart,
,,,,,,,,,,,,,,,,,,,,,0.02130089999991469,0.03815049999684561,0.03815049999684561,1.9881852999969851,space,1.9463094999955501,None,,,,,,,,,,,,,,,,,,,,,,,,,,,,,,,,,,,,,,,,,,,,,,,,,,,,,,,,,,,,,,,,,,,,,,,,,,,,,,,,,,,,,,,,,,,,,,,,,,,,,,,,,,,,,,,,,,002,001,2023-11-12_13h46.20.064,untitled,2023.2.3,60.361796536378186,2023-11-12 13h46.29.105285 +0800,
,,,,,,,,,,,,,,,,,,,,,,,,,,,,1.988205999994534,2.004305499998736,2.004305499998736,46.28823890000058,space,44.277858400004334,None,,,,,,,,,,,,,,,,,,,,,,,,,,,,,,,,,,,,,,,,,,,,,,,,,,,,,,,,,,,,,,,,,,,,,,,,,,,,,,,,,,,,,,,,,,,,,,,,,,,,,,,,,,,002,001,2023-11-12_13h46.20.064,untitled,2023.2.3,60.361796536378186,2023-11-12 13h46.29.105285 +0800,
1,test/blank.PNG,space,0,0,0,2,,,,,,,,,,,,,46.388154100000975,,,,,,,,,,,,,,,,46.293701599992346,46.388154100000975,46.78898269998899,46.789009599990095,47.28793349998887,47.62063209999178,47.57356889999937,47.57357839999895,48.88733329999377,48.88733329999377,49.689715999993496,51.689902699989034,space,2.7852865000022575,None,,,,,,,,,,,,,,,,,,,,,,,,,,,,,,,,,,,,,,,,,,,,,,,,,,,,,,,,,,,,,,,,,,,,,,,,,,,,,,,,,,,,,,,,,,,,002,001,2023-11-12_13h46.20.064,untitled,2023.2.3,60.361796536378186,2023-11-12 13h46.29.105285 +0800,
2,test/leftstar.PNG,space,0,1,1,4,,,,,,,,,,,,,51.770665699994424,,,,,,,,,,,,,,,,51.69081649999134,51.770665699994424,52.204798399994615,52.20480909998878,52.704736100000446,53.154047499992885,52.98782850000134,52.98783959999855,54.37073290000262,54.37073290000262,,55.1210868999915,space,0.7437632999935886,None,,,,,,,,,,,,,,,,,,,,,,,,,,,,,,,,,,,,,,,,,,,,,,,,,,,,,,,,,,,,,,,,,,,,,,,,,,,,,,,,,,,,,,,,,,,,002,001,2023-11-12_13h46.20.064,untitled,2023.2.3,60.361796536378186,2023-11-12 13h46.29.105285 +0800,
9,test/rightstar.PNG,right,0,2,2,3,,,,,,,,,,,,,55.19236020000244,,,,,,,,,,,,,,,,55.12140089999593,55.19236020000244,55.62147189999814,55.6214811999962,56.12110959998972,56.604805099996156,56.404706499990425,56.404716899996856,57.720698299992364,57.720698299992364,,58.13833560000057,right,0.41601749999972526,None,,,,,,,,,,,,,,,,,,,,,,,,,,,,,,,,,,,,,,,,,,,,,,,,,,,,,,,,,,,,,,,,,,,,,,,,,,,,,,,,,,,,,,,,,,,,002,001,2023-11-12_13h46.20.064,untitled,2023.2.3,60.361796536378186,2023-11-12 13h46.29.105285 +0800,
8,test/leftstar.PNG,left,0,3,3,5,,,,,,,,,,,,,58.220740699995076,,,,,,,,,,,,,,,,58.138711499996134,58.220740699995076,58.63868589999038,58.63870759999554,59.13773859999492,59.621122199998354,59.421330600001966,59.42134239998995,60.738126600001124,60.738126600001124,,61.105609999998705,space,0.35777640000742394,None,,,,,,,,,,,,,,,,,,,,,,,,,,,,,,,,,,,,,,,,,,,,,,,,,,,,,,,,,,,,,,,,,,,,,,,,,,,,,,,,,,,,,,,,,,,,002,001,2023-11-12_13h46.20.064,untitled,2023.2.3,60.361796536378186,2023-11-12 13h46.29.105285 +0800,
1,test/leftstar.PNG,space,0,4,4,0,,,,,,,,,,,,,61.18738609999127,,,,,,,,,,,,,,,,61.10604479999165,61.18738609999127,61.62151420000009,61.621523399997386,62.10431749999407,62.588869499988505,62.38814029999776,62.38815020000038,63.70384029998968,63.70384029998968,,64.40465869999025,space,0.6964852000091923,None,,,,,,,,,,,,,,,,,,,,,,,,,,,,,,,,,,,,,,,,,,,,,,,,,,,,,,,,,,,,,,,,,,,,,,,,,,,,,,,,,,,,,,,,,,,,002,001,2023-11-12_13h46.20.064,untitled,2023.2.3,60.361796536378186,2023-11-12 13h46.29.105285 +0800,
8,test/rightstar.PNG,right,0,5,5,1,,,,,,,,,,,,,64.4749382000009,,,,,,,,,,,,,,,,64.40498369999113,64.4749382000009,64.92133719999401,64.9213471999974,65.40454039999167,65.87316699999792,65.68858299999556,65.68859409999277,67.00377039999876,67.00377039999876,,67.23799579999468,right,0.23271050000039395,None,,,,,,,,,,,,,,,,,,,,,,,,,,,,,,,,,,,,,,,,,,,,,,,,,,,,,,,,,,,,,,,,,,,,,,,,,,,,,,,,,,,,,,,,,,,,002,001,2023-11-12_13h46.20.064,untitled,2023.2.3,60.361796536378186,2023-11-12 13h46.29.105285 +0800,
,,,,,,,,,,,,,,,,,,,,,,,,,,,,,,,,,,,,,,,,,,,,,,,,,,67.23826240000199,67.25411449999956,67.25411449999956,73.7719020999939,space,6.506218399998033,0.0096075000037672,,,,,,,,,,,,,,,,,,,,,,,,,,,,,,,,,,,,,,,,,,,,,,,,,,,,,,,,,,,,,,,,,,,,,,,,,,,,,,,,,,,,,002,001,2023-11-12_13h46.20.064,untitled,2023.2.3,60.361796536378186,2023-11-12 13h46.29.105285 +0800,
,,,,,,,,,,,,,,,,,,,,,,,,,,,,,,,,,,,,,,,,,,,,,,,,,,,,,,,,,73.771928999995,73.78738379999413,73.78738379999413,77.07135759999801,space,3.2717877000104636,None,,,,,,,,,,,,,,,,,,,,,,,,,,,,,,,,,,,,,,,,,,,,,,,,,,,,,,,,,,,,,,,,,,,,,,,,,,,,,,002,001,2023-11-12_13h46.20.064,untitled,2023.2.3,60.361796536378186,2023-11-12 13h46.29.105285 +0800,
2,condition_1/leftstar.PNG,space,,,,,0,0,0,1,,,,,,,,,77.17028759999084,,,,,,,,,,,,,,,,,,,,,,,,,,,,,,,,,,,,,,,,,,,,,77.08803079999052,77.17028759999084,77.57188730000053,77.57190099998843,78.07132079999428,78.53792419999081,78.35494530000142,78.35495759999321,79.67848579998827,79.67848579998827,80.27140409999993,space,1,0.5808797999925446,None,,,,,,,,,,,,,,,,,,,,,,,,,,,,,,,,,,,,,,,,,,,,,,,,,,,,,,,,,,,,,,,002,001,2023-11-12_13h46.20.064,untitled,2023.2.3,60.361796536378186,2023-11-12 13h46.29.105285 +0800,
1,condition_1/blank.PNG,space,,,,,0,1,1,8,,,,,,,,,80.3437675999885,,,,,,,,,,,,,,,,,,,,,,,,,,,,,,,,,,,,,,,,,,,,,80.27199699998891,80.3437675999885,80.78823539998848,80.78824739999254,81.27113449999888,81.59277999999176,81.55508189999091,81.55510189999768,82.95508759999939,82.95508759999939,86.2220621000015,space,1,3.2632766000024276,None,83.75463349999336,,,,,,,,,,,,,,,,,,,,,,,,,,,,,,,,,,,,,,,,,,,,,,,,,,,,,,,,,,,,,,002,001,2023-11-12_13h46.20.064,untitled,2023.2.3,60.361796536378186,2023-11-12 13h46.29.105285 +0800,
1,condition_1/leftstar.PNG,space,,,,,0,2,2,16,,,,,,,,,86.30422439999529,,,,,,,,,,,,,,,,,,,,,,,,,,,,,,,,,,,,,,,,,,,,,86.222428699999,86.30422439999529,86.73890199999732,86.73891309999453,87.23787859998993,87.7211540999997,87.52169309998862,87.52170279998973,88.8580101999978,88.8580101999978,89.75646229999256,space,1,0.8882708000019193,None,89.67096350000065,,,,,,,,,,,,,,,,,,,,,,,,,,,,,,,,,,,,,,,,,,,,,,,,,,,,,,,,,,,,,,002,001,2023-11-12_13h46.20.064,untitled,2023.2.3,60.361796536378186,2023-11-12 13h46.29.105285 +0800,
2,condition_1/blank.PNG,space,,,,,0,3,3,9,,,,,,,,,89.82766840000113,,,,,,,,,,,,,,,,,,,,,,,,,,,,,,,,,,,,,,,,,,,,,89.75690690000192,89.82766840000113,90.27142079999612,90.27143159999105,90.77120370000193,91.10482310000225,91.0552835999988,91.05529409999144,92.47060919999785,92.47060919999785,93.00576410000212,space,1,0.5334558000031393,None,,,,,,,,,,,,,,,,,,,,,,,,,,,,,,,,,,,,,,,,,,,,,,,,,,,,,,,,,,,,,,,002,001,2023-11-12_13h46.20.064,untitled,2023.2.3,60.361796536378186,2023-11-12 13h46.29.105285 +0800,
2,condition_1/leftstar.PNG,space,,,,,0,4,4,17,,,,,,,,,93.08810399999493,,,,,,,,,,,,,,,,,,,,,,,,,,,,,,,,,,,,,,,,,,,,,93.0061471999943,93.08810399999493,93.52122889999009,93.52124190000177,94.00395040000149,94.48778299998958,94.28783159999875,94.28784330000053,95.65416279999772,95.65416279999772,96.13796769999317,space,1,0.4727253000019118,None,,,,,,,,,,,,,,,,,,,,,,,,,,,,,,,,,,,,,,,,,,,,,,,,,,,,,,,,,,,,,,,002,001,2023-11-12_13h46.20.064,untitled,2023.2.3,60.361796536378186,2023-11-12 13h46.29.105285 +0800,
8,condition_1/blank.PNG,space,,,,,0,5,5,24,,,,,,,,,96.20870409999043,,,,,,,,,,,,,,,,,,,,,,,,,,,,,,,,,,,,,,,,,,,,,96.1385248000006,96.20870409999043,96.65474159999576,96.65475239999068,97.13764039998932,97.45871089999855,97.42184009999619,97.42184979999729,98.81271969999943,98.81271969999943,99.45549870000104,space,1,0.6249997999984771,None,,,,,,,,,,,,,,,,,,,,,,,,,,,,,,,,,,,,,,,,,,,,,,,,,,,,,,,,,,,,,,,002,001,2023-11-12_13h46.20.064,untitled,2023.2.3,60.361796536378186,2023-11-12 13h46.29.105285 +0800,
9,condition_1/leftstar.PNG,left,,,,,0,6,6,19,,,,,,,,,99.53767449999577,,,,,,,,,,,,,,,,,,,,,,,,,,,,,,,,,,,,,,,,,,,,,99.4559362,99.53767449999577,99.97164019999036,99.97165089999908,100.47143679999863,100.9379312999954,100.75498319999315,100.7549946999934,102.1052270999935,102.1052270999935,102.65494079999917,left,1,0.5446058999950765,None,,,,,,,,,,,,,,,,,,,,,,,,,,,,,,,,,,,,,,,,,,,,,,,,,,,,,,,,,,,,,,,002,001,2023-11-12_13h46.20.064,untitled,2023.2.3,60.361796536378186,2023-11-12 13h46.29.105285 +0800,
9,condition_1/leftstar.PNG,left,,,,,0,7,7,3,,,,,,,,,102.73960519999673,,,,,,,,,,,,,,,,,,,,,,,,,,,,,,,,,,,,,,,,,,,,,102.65534179999668,102.73960519999673,103.17094989999896,103.17095990000234,103.6544498000003,104.13762309998856,103.93816789999255,103.9381771999906,105.25393629999598,105.25393629999598,105.70574959999067,space,0,0.4344372000050498,None,,,,,,,,,,,,,,,,,,,,,,,,,,,,,,,,,,,,,,,,,,,,,,,,,,,,,,,,,,,,,,,002,001,2023-11-12_13h46.20.064,untitled,2023.2.3,60.361796536378186,2023-11-12 13h46.29.105285 +0800,
9,condition_1/blank.PNG,space,,,,,0,8,8,11,,,,,,,,,105.77709759998834,,,,,,,,,,,,,,,,,,,,,,,,,,,,,,,,,,,,,,,,,,,,,105.70624649999081,105.77709759998834,106.22123979999742,106.22125029999006,106.72198029998981,,107.02122399999644,107.02123519999441,108.42108189999999,108.42108189999999,109.13789980000001,space,1,0.701182599994354,None,,,,,,,,,,,,,,,,,,,,,,,,,,,,,,,,,,,,,,,,,,,,,,,,,,,,,,,,,,,,,,,002,001,2023-11-12_13h46.20.064,untitled,2023.2.3,60.361796536378186,2023-11-12 13h46.29.105285 +0800,
2,condition_1/rightstar.PNG,space,,,,,0,9,9,13,,,,,,,,,109.2071309999883,,,,,,,,,,,,,,,,,,,,,,,,,,,,,,,,,,,,,,,,,,,,,109.13826819999667,109.2071309999883,109.65527109999675,109.65528999999515,110.1382913999987,110.62087800000154,110.42155800000182,110.42156829999294,111.80564500000037,111.80564500000037,112.33836110000266,right,0,0.528278899990255,None,,,,,,,,,,,,,,,,,,,,,,,,,,,,,,,,,,,,,,,,,,,,,,,,,,,,,,,,,,,,,,,002,001,2023-11-12_13h46.20.064,untitled,2023.2.3,60.361796536378186,2023-11-12 13h46.29.105285 +0800,
8,condition_1/rightstar.PNG,right,,,,,0,10,10,23,,,,,,,,,112.41306099999929,,,,,,,,,,,,,,,,,,,,,,,,,,,,,,,,,,,,,,,,,,,,,112.33878609999374,112.41306099999929,112.85461319999013,112.85462579999876,113.33877889999712,,113.6387226999941,113.63873339998827,114.93727779999608,114.93727779999608,115.6228790999885,right,1,0.678861299995333,None,,,,,,,,,,,,,,,,,,,,,,,,,,,,,,,,,,,,,,,,,,,,,,,,,,,,,,,,,,,,,,,002,001,2023-11-12_13h46.20.064,untitled,2023.2.3,60.361796536378186,2023-11-12 13h46.29.105285 +0800,
1,condition_1/rightstar.PNG,space,,,,,0,11,11,4,,,,,,,,,115.70391189999646,,,,,,,,,,,,,,,,,,,,,,,,,,,,,,,,,,,,,,,,,,,,,115.62323269998888,115.70391189999646,116.13763659998949,116.13764859999355,116.6377705999912,117.12116019999667,116.92166789999465,116.92168529999617,118.23729459999595,118.23729459999595,118.83919600000081,space,1,0.5947061000042595,None,,,,,,,,,,,,,,,,,,,,,,,,,,,,,,,,,,,,,,,,,,,,,,,,,,,,,,,,,,,,,,,002,001,2023-11-12_13h46.20.064,untitled,2023.2.3,60.361796536378186,2023-11-12 13h46.29.105285 +0800,
8,condition_1/rightstar.PNG,right,,,,,0,12,12,6,,,,,,,,,118.90983319999941,,,,,,,,,,,,,,,,,,,,,,,,,,,,,,,,,,,,,,,,,,,,,118.83957399999781,118.90983319999941,119.35451259999536,119.35452480000095,119.8543750999961,120.32123780000256,120.138031399998,120.13804099999834,121.45394189999206,121.45394189999206,122.006163500002,right,1,0.5376710999989882,None,,,,,,,,,,,,,,,,,,,,,,,,,,,,,,,,,,,,,,,,,,,,,,,,,,,,,,,,,,,,,,,002,001,2023-11-12_13h46.20.064,untitled,2023.2.3,60.361796536378186,2023-11-12 13h46.29.105285 +0800,
8,condition_1/leftstar.PNG,left,,,,,0,13,13,18,,,,,,,,,122.07957960000203,,,,,,,,,,,,,,,,,,,,,,,,,,,,,,,,,,,,,,,,,,,,,122.00659199999063,122.07957960000203,122.5207931999903,122.52080579999893,123.02087909998954,123.50442749999638,123.30495249999512,123.3049650999892,124.6201965999935,124.6201965999935,125.25504099999671,left,1,0.630329099993105,None,,,,,,,,,,,,,,,,,,,,,,,,,,,,,,,,,,,,,,,,,,,,,,,,,,,,,,,,,,,,,,,002,001,2023-11-12_13h46.20.064,untitled,2023.2.3,60.361796536378186,2023-11-12 13h46.29.105285 +0800,
8,condition_1/blank.PNG,space,,,,,0,14,14,10,,,,,,,,,125.33738469998934,,,,,,,,,,,,,,,,,,,,,,,,,,,,,,,,,,,,,,,,,,,,,125.25553419999778,125.33738469998934,125.77247630000056,125.77248719999625,126.27118809999956,126.59238419999019,126.55491649999749,126.55492919999233,127.93035260000033,127.93035260000033,129.07205380000232,left,0,1.1366735999908997,None,128.7376876999915,,,,,,,,,,,,,,,,,,,,,,,,,,,,,,,,,,,,,,,,,,,,,,,,,,,,,,,,,,,,,,002,001,2023-11-12_13h46.20.064,untitled,2023.2.3,60.361796536378186,2023-11-12 13h46.29.105285 +0800,
9,condition_1/rightstar.PNG,right,,,,,0,15,15,15,,,,,,,,,129.15398409999034,,,,,,,,,,,,,,,,,,,,,,,,,,,,,,,,,,,,,,,,,,,,,129.07251279999036,129.15398409999034,129.58739590000187,129.58741579999332,130.08744289999595,130.57214369998837,130.37098409999453,130.37099470000248,131.7210511000012,131.7210511000012,132.28781629999867,right,1,0.5511101999873063,None,,,,,,,,,,,,,,,,,,,,,,,,,,,,,,,,,,,,,,,,,,,,,,,,,,,,,,,,,,,,,,,002,001,2023-11-12_13h46.20.064,untitled,2023.2.3,60.361796536378186,2023-11-12 13h46.29.105285 +0800,
1,condition_1/leftstar.PNG,space,,,,,0,16,16,22,,,,,,,,,132.37067029999162,,,,,,,,,,,,,,,,,,,,,,,,,,,,,,,,,,,,,,,,,,,,,132.28824809999787,132.37067029999162,132.78899519999686,132.78900609999255,133.2887488999986,133.77159559998836,133.58784729999024,133.58785889999126,134.8887809000007,134.8887809000007,135.8377230999904,space,1,0.9398267000069609,None,135.7051994999929,,,,,,,,,,,,,,,,,,,,,,,,,,,,,,,,,,,,,,,,,,,,,,,,,,,,,,,,,,,,,,002,001,2023-11-12_13h46.20.064,untitled,2023.2.3,60.361796536378186,2023-11-12 13h46.29.105285 +0800,
2,condition_1/rightstar.PNG,space,,,,,0,17,17,21,,,,,,,,,135.92110339998908,,,,,,,,,,,,,,,,,,,,,,,,,,,,,,,,,,,,,,,,,,,,,135.83815609999874,135.92110339998908,136.33850079998956,136.33851289999438,136.8387592999934,,137.13813429999573,137.13814660000207,138.4372347999888,138.4372347999888,139.30541149999772,space,1,0.8664355999935651,None,139.23775020000176,,,,,,,,,,,,,,,,,,,,,,,,,,,,,,,,,,,,,,,,,,,,,,,,,,,,,,,,,,,,,,002,001,2023-11-12_13h46.20.064,untitled,2023.2.3,60.361796536378186,2023-11-12 13h46.29.105285 +0800,
9,condition_1/leftstar.PNG,left,,,,,0,18,18,20,,,,,,,,,139.38135759999568,,,,,,,,,,,,,,,,,,,,,,,,,,,,,,,,,,,,,,,,,,,,,139.30586409999523,139.38135759999568,139.82065290000173,139.82066450000275,140.30429069999082,140.78777460000128,140.58851799998956,140.588528399996,141.92134699999588,141.92134699999588,142.4215783999971,left,1,0.49160580000898335,None,,,,,,,,,,,,,,,,,,,,,,,,,,,,,,,,,,,,,,,,,,,,,,,,,,,,,,,,,,,,,,,002,001,2023-11-12_13h46.20.064,untitled,2023.2.3,60.361796536378186,2023-11-12 13h46.29.105285 +0800,
1,condition_1/rightstar.PNG,space,,,,,0,19,19,12,,,,,,,,,142.49612070000148,,,,,,,,,,,,,,,,,,,,,,,,,,,,,,,,,,,,,,,,,,,,,142.42209500000172,142.49612070000148,142.93898849999823,142.93899939999392,143.4211554999929,143.88799219999055,143.7046546999918,143.70466560000204,145.0208152999985,145.0208152999985,145.7560281999904,right,0,0.728275700006634,None,,,,,,,,,,,,,,,,,,,,,,,,,,,,,,,,,,,,,,,,,,,,,,,,,,,,,,,,,,,,,,,002,001,2023-11-12_13h46.20.064,untitled,2023.2.3,60.361796536378186,2023-11-12 13h46.29.105285 +0800,
8,condition_1/leftstar.PNG,left,,,,,0,20,20,2,,,,,,,,,145.82668569999805,,,,,,,,,,,,,,,,,,,,,,,,,,,,,,,,,,,,,,,,,,,,,145.75657339999452,145.82668569999805,146.27168039999378,146.27169239999785,146.7718077999889,147.25487589999102,147.05464329999813,147.0546553999884,148.3704912999965,148.3704912999965,148.90487589999975,left,1,0.5295363999903202,None,,,,,,,,,,,,,,,,,,,,,,,,,,,,,,,,,,,,,,,,,,,,,,,,,,,,,,,,,,,,,,,002,001,2023-11-12_13h46.20.064,untitled,2023.2.3,60.361796536378186,2023-11-12 13h46.29.105285 +0800,
9,condition_1/rightstar.PNG,right,,,,,0,21,21,7,,,,,,,,,148.98766749999777,,,,,,,,,,,,,,,,,,,,,,,,,,,,,,,,,,,,,,,,,,,,,148.90528339998855,148.98766749999777,149.42055359999358,149.42056359999697,149.90428769998834,150.387771099995,150.18819119999534,150.18820669999695,151.50373840000248,151.50373840000248,151.87127579998923,right,1,0.36619520001113415,None,,,,,,,,,,,,,,,,,,,,,,,,,,,,,,,,,,,,,,,,,,,,,,,,,,,,,,,,,,,,,,,002,001,2023-11-12_13h46.20.064,untitled,2023.2.3,60.361796536378186,2023-11-12 13h46.29.105285 +0800,
8,condition_1/rightstar.PNG,right,,,,,0,22,22,14,,,,,,,,,151.9547137999907,,,,,,,,,,,,,,,,,,,,,,,,,,,,,,,,,,,,,,,,,,,,,151.87164569999732,151.9547137999907,152.38806589999876,152.38807659999293,152.87153569998918,153.33809199999087,153.15458649999346,153.1545979999937,154.47109979999368,154.47109979999368,154.85530819999985,right,1,0.3713214000017615,None,,,,,,,,,,,,,,,,,,,,,,,,,,,,,,,,,,,,,,,,,,,,,,,,,,,,,,,,,,,,,,,002,001,2023-11-12_13h46.20.064,untitled,2023.2.3,60.361796536378186,2023-11-12 13h46.29.105285 +0800,
2,condition_1/rightstar.PNG,space,,,,,0,23,23,5,,,,,,,,,154.93725829999312,,,,,,,,,,,,,,,,,,,,,,,,,,,,,,,,,,,,,,,,,,,,,154.8556658000016,154.93725829999312,155.3716596000013,155.3716706999985,155.8711340000009,156.35440999999992,156.15452539999387,156.15453679999337,157.4705072999932,157.4705072999932,157.93841219999013,right,0,0.4539504999993369,None,,,,,,,,,,,,,,,,,,,,,,,,,,,,,,,,,,,,,,,,,,,,,,,,,,,,,,,,,,,,,,,002,001,2023-11-12_13h46.20.064,untitled,2023.2.3,60.361796536378186,2023-11-12 13h46.29.105285 +0800,
1,condition_1/leftstar.PNG,space,,,,,0,24,24,0,,,,,,,,,158.01442269999825,,,,,,,,,,,,,,,,,,,,,,,,,,,,,,,,,,,,,,,,,,,,,157.93905849999283,158.01442269999825,158.4540280999936,158.4540377999947,158.95399769999494,159.4380375999899,159.23777100000007,159.23778109998966,160.53800780000165,160.53800780000165,161.20461699999578,space,1,0.6521970000030706,None,,,,,,,,,,,,,,,,,,,,,,,,,,,,,,,,,,,,,,,,,,,,,,,,,,,,,,,,,,,,,,,002,001,2023-11-12_13h46.20.064,untitled,2023.2.3,60.361796536378186,2023-11-12 13h46.29.105285 +0800,
9,condition_1/leftstar.PNG,left,,,,,1,0,25,20,,,,,,,,,161.27701869999873,,,,,,,,,,,,,,,,,,,,,,,,,,,,,,,,,,,,,,,,,,,,,161.20503899999312,161.27701869999873,161.72055829998862,161.72056849999353,162.22051519999513,162.68791199999396,162.5042761999939,162.50428799999645,163.8034547999996,163.8034547999996,164.23819379998895,left,1,0.4236033000051975,None,,,,,,,,,,,,,,,,,,,,,,,,,,,,,,,,,,,,,,,,,,,,,,,,,,,,,,,,,,,,,,,002,001,2023-11-12_13h46.20.064,untitled,2023.2.3,60.361796536378186,2023-11-12 13h46.29.105285 +0800,
1,condition_1/leftstar.PNG,space,,,,,1,1,26,22,,,,,,,,,164.3206186999887,,,,,,,,,,,,,,,,,,,,,,,,,,,,,,,,,,,,,,,,,,,,,164.23855829999957,164.3206186999887,164.7543380999996,164.7543488999945,165.25454999999783,165.73839099999168,165.5381355999998,165.53814819999388,166.83729850000236,166.83729850000236,167.4731058999896,space,1,0.6317570999963209,None,,,,,,,,,,,,,,,,,,,,,,,,,,,,,,,,,,,,,,,,,,,,,,,,,,,,,,,,,,,,,,,002,001,2023-11-12_13h46.20.064,untitled,2023.2.3,60.361796536378186,2023-11-12 13h46.29.105285 +0800,
2,condition_1/rightstar.PNG,space,,,,,1,2,27,13,,,,,,,,,167.5406101999979,,,,,,,,,,,,,,,,,,,,,,,,,,,,,,,,,,,,,,,,,,,,,167.47357170000032,167.5406101999979,167.98851169999398,167.98852349999652,168.48758380000072,168.97280069999397,168.77152949999436,168.77154279999377,170.08717420000175,170.08717420000175,170.72165139998833,space,1,0.6311315999919316,None,,,,,,,,,,,,,,,,,,,,,,,,,,,,,,,,,,,,,,,,,,,,,,,,,,,,,,,,,,,,,,,002,001,2023-11-12_13h46.20.064,untitled,2023.2.3,60.361796536378186,2023-11-12 13h46.29.105285 +0800,
2,condition_1/rightstar.PNG,space,,,,,1,3,28,5,,,,,,,,,170.8052597999922,,,,,,,,,,,,,,,,,,,,,,,,,,,,,,,,,,,,,,,,,,,,,170.7220016999927,170.8052597999922,171.23858839999593,171.23859949999314,171.72154109999246,172.1707516000024,172.00489889999153,172.00491180000245,173.33725189999677,173.33725189999677,173.83864390000235,space,1,0.4845583999995142,None,,,,,,,,,,,,,,,,,,,,,,,,,,,,,,,,,,,,,,,,,,,,,,,,,,,,,,,,,,,,,,,002,001,2023-11-12_13h46.20.064,untitled,2023.2.3,60.361796536378186,2023-11-12 13h46.29.105285 +0800,
1,condition_1/leftstar.PNG,space,,,,,1,4,29,0,,,,,,,,,173.90842880000127,,,,,,,,,,,,,,,,,,,,,,,,,,,,,,,,,,,,,,,,,,,,,173.83900009999343,173.90842880000127,174.35468889999902,174.3546997999947,174.83833389999927,175.32103479999932,175.12140139999974,175.12141199999314,176.4539356999885,176.4539356999885,176.97200519999024,space,1,0.503545400002622,None,,,,,,,,,,,,,,,,,,,,,,,,,,,,,,,,,,,,,,,,,,,,,,,,,,,,,,,,,,,,,,,002,001,2023-11-12_13h46.20.064,untitled,2023.2.3,60.361796536378186,2023-11-12 13h46.29.105285 +0800,
9,condition_1/leftstar.PNG,left,,,,,1,5,30,3,,,,,,,,,177.03933849999157,,,,,,,,,,,,,,,,,,,,,,,,,,,,,,,,,,,,,,,,,,,,,176.9724242999946,177.03933849999157,177.48723539999628,177.48724719999882,177.98742889999994,178.4708818999934,178.27214780000213,178.2721584999963,179.58773129999463,179.58773129999463,180.0552219999954,left,1,0.45930820000648964,None,,,,,,,,,,,,,,,,,,,,,,,,,,,,,,,,,,,,,,,,,,,,,,,,,,,,,,,,,,,,,,,002,001,2023-11-12_13h46.20.064,untitled,2023.2.3,60.361796536378186,2023-11-12 13h46.29.105285 +0800,
8,condition_1/blank.PNG,space,,,,,1,6,31,24,,,,,,,,,180.13728129999072,,,,,,,,,,,,,,,,,,,,,,,,,,,,,,,,,,,,,,,,,,,,,180.055732599998,180.13728129999072,180.57341689999157,180.5734286999941,181.0709882999945,181.40436889999546,181.35474759999488,181.3547580000013,182.77219180000247,182.77219180000247,183.9227503000002,space,1,1.1332493999943836,None,183.5715072999883,,,,,,,,,,,,,,,,,,,,,,,,,,,,,,,,,,,,,,,,,,,,,,,,,,,,,,,,,,,,,,002,001,2023-11-12_13h46.20.064,untitled,2023.2.3,60.361796536378186,2023-11-12 13h46.29.105285 +0800,
1,condition_1/rightstar.PNG,space,,,,,1,7,32,4,,,,,,,,,184.0039354999899,,,,,,,,,,,,,,,,,,,,,,,,,,,,,,,,,,,,,,,,,,,,,183.92316279999795,184.0039354999899,184.43794009998965,184.43795529998897,184.9378391999926,185.4044797999959,185.22150220000185,185.22151360000134,186.5885522999888,186.5885522999888,187.02098109999497,space,1,0.41741770000953693,None,,,,,,,,,,,,,,,,,,,,,,,,,,,,,,,,,,,,,,,,,,,,,,,,,,,,,,,,,,,,,,,002,001,2023-11-12_13h46.20.064,untitled,2023.2.3,60.361796536378186,2023-11-12 13h46.29.105285 +0800,
8,condition_1/leftstar.PNG,left,,,,,1,8,33,2,,,,,,,,,187.10438979999162,,,,,,,,,,,,,,,,,,,,,,,,,,,,,,,,,,,,,,,,,,,,,187.02133909999975,187.10438979999162,187.5213187999907,187.5213301999902,188.02088229999936,188.5046255999914,188.3047835999896,188.30479470000137,189.62039689999074,189.62039689999074,189.9544853999978,left,1,0.32039249999797903,None,,,,,,,,,,,,,,,,,,,,,,,,,,,,,,,,,,,,,,,,,,,,,,,,,,,,,,,,,,,,,,,002,001,2023-11-12_13h46.20.064,untitled,2023.2.3,60.361796536378186,2023-11-12 13h46.29.105285 +0800,
8,condition_1/rightstar.PNG,right,,,,,1,9,34,23,,,,,,,,,190.02210580000246,,,,,,,,,,,,,,,,,,,,,,,,,,,,,,,,,,,,,,,,,,,,,189.95485650000046,190.02210580000246,190.4714488000027,190.47146069999144,190.95435369999905,191.43769629999588,191.23795999999857,191.23797209998884,192.5539829999907,192.5539829999907,193.25477580000006,right,1,0.6944870000006631,None,,,,,,,,,,,,,,,,,,,,,,,,,,,,,,,,,,,,,,,,,,,,,,,,,,,,,,,,,,,,,,,002,001,2023-11-12_13h46.20.064,untitled,2023.2.3,60.361796536378186,2023-11-12 13h46.29.105285 +0800,
1,condition_1/blank.PNG,space,,,,,1,10,35,8,,,,,,,,,193.33983050000097,,,,,,,,,,,,,,,,,,,,,,,,,,,,,,,,,,,,,,,,,,,,,193.25519979999808,193.33983050000097,193.77119509999466,193.77120540000033,194.25413000000117,194.57180700000026,194.53756779999821,194.53757859999314,195.95494689999032,195.95494689999032,197.9884713999927,space,1,2.020439699990675,None,196.75425869999162,,,,,,,,,,,,,,,,,,,,,,,,,,,,,,,,,,,,,,,,,,,,,,,,,,,,,,,,,,,,,,002,001,2023-11-12_13h46.20.064,untitled,2023.2.3,60.361796536378186,2023-11-12 13h46.29.105285 +0800,
9,condition_1/rightstar.PNG,right,,,,,1,11,36,15,,,,,,,,,198.0608043999964,,,,,,,,,,,,,,,,,,,,,,,,,,,,,,,,,,,,,,,,,,,,,197.98885699998937,198.0608043999964,198.5041646999889,198.50417539999762,198.98779139999533,199.47099419998995,199.27179819998855,199.27181569999084,200.65437419999216,200.65437419999216,201.2210933999886,right,1,0.5583191000041552,None,,,,,,,,,,,,,,,,,,,,,,,,,,,,,,,,,,,,,,,,,,,,,,,,,,,,,,,,,,,,,,,002,001,2023-11-12_13h46.20.064,untitled,2023.2.3,60.361796536378186,2023-11-12 13h46.29.105285 +0800,
2,condition_1/leftstar.PNG,space,,,,,1,12,37,1,,,,,,,,,201.29209819999232,,,,,,,,,,,,,,,,,,,,,,,,,,,,,,,,,,,,,,,,,,,,,201.22162579999713,201.29209819999232,201.73746319999918,201.73747329998878,202.22121029999107,202.70390589999442,202.50480029999744,202.50480979999702,203.82065599999623,203.82065599999623,204.13899609999498,space,1,0.31670119999034796,None,,,,,,,,,,,,,,,,,,,,,,,,,,,,,,,,,,,,,,,,,,,,,,,,,,,,,,,,,,,,,,,002,001,2023-11-12_13h46.20.064,untitled,2023.2.3,60.361796536378186,2023-11-12 13h46.29.105285 +0800,
1,condition_1/leftstar.PNG,space,,,,,1,13,38,16,,,,,,,,,204.22068939999735,,,,,,,,,,,,,,,,,,,,,,,,,,,,,,,,,,,,,,,,,,,,,204.13936499999545,204.22068939999735,204.65447339999082,204.65448379999725,205.15412690000085,205.63813120000123,205.43806600000244,205.43807689999812,206.7537966999953,206.7537966999953,207.43821089999983,space,1,0.6706333000038285,None,,,,,,,,,,,,,,,,,,,,,,,,,,,,,,,,,,,,,,,,,,,,,,,,,,,,,,,,,,,,,,,002,001,2023-11-12_13h46.20.064,untitled,2023.2.3,60.361796536378186,2023-11-12 13h46.29.105285 +0800,
8,condition_1/rightstar.PNG,right,,,,,1,14,39,6,,,,,,,,,207.5079229999974,,,,,,,,,,,,,,,,,,,,,,,,,,,,,,,,,,,,,,,,,,,,,207.43864490000124,207.5079229999974,207.9538523999945,207.95386439999857,208.43753450000077,208.90490419999696,208.72165009999298,208.72166009999637,210.03782469998987,210.03782469998987,210.58770219999133,right,1,0.536767499987036,None,,,,,,,,,,,,,,,,,,,,,,,,,,,,,,,,,,,,,,,,,,,,,,,,,,,,,,,,,,,,,,,002,001,2023-11-12_13h46.20.064,untitled,2023.2.3,60.361796536378186,2023-11-12 13h46.29.105285 +0800,
8,condition_1/rightstar.PNG,right,,,,,1,15,40,14,,,,,,,,,210.67047399999865,,,,,,,,,,,,,,,,,,,,,,,,,,,,,,,,,,,,,,,,,,,,,210.58814009999332,210.67047399999865,211.10389149999537,211.10390239999106,211.58749809999426,212.0711130999989,211.87070999998832,211.87072639999678,213.18710899999132,213.18710899999132,213.80446309999388,right,1,0.6013999999995576,None,,,,,,,,,,,,,,,,,,,,,,,,,,,,,,,,,,,,,,,,,,,,,,,,,,,,,,,,,,,,,,,002,001,2023-11-12_13h46.20.064,untitled,2023.2.3,60.361796536378186,2023-11-12 13h46.29.105285 +0800,
2,condition_1/leftstar.PNG,space,,,,,1,16,41,17,,,,,,,,,213.87171500000113,,,,,,,,,,,,,,,,,,,,,,,,,,,,,,,,,,,,,,,,,,,,,213.80497719999403,213.87171500000113,214.32091819999914,214.32093679999525,214.80459780000092,215.2713919999951,215.08841539999412,215.0884292999981,216.4038537000015,216.4038537000015,216.87227719998918,space,1,0.4657165999960853,None,,,,,,,,,,,,,,,,,,,,,,,,,,,,,,,,,,,,,,,,,,,,,,,,,,,,,,,,,,,,,,,002,001,2023-11-12_13h46.20.064,untitled,2023.2.3,60.361796536378186,2023-11-12 13h46.29.105285 +0800,
8,condition_1/leftstar.PNG,left,,,,,1,17,42,18,,,,,,,,,216.95505669999693,,,,,,,,,,,,,,,,,,,,,,,,,,,,,,,,,,,,,,,,,,,,,216.87279819999821,216.95505669999693,217.38755949999904,217.38757029999397,217.88791879999917,218.37096519999614,218.1711329999962,218.1711435999896,219.4870188999921,219.4870188999921,219.97243999999773,space,0,0.4811157999938587,None,,,,,,,,,,,,,,,,,,,,,,,,,,,,,,,,,,,,,,,,,,,,,,,,,,,,,,,,,,,,,,,002,001,2023-11-12_13h46.20.064,untitled,2023.2.3,60.361796536378186,2023-11-12 13h46.29.105285 +0800,
9,condition_1/blank.PNG,space,,,,,1,18,43,11,,,,,,,,,220.05377639998915,,,,,,,,,,,,,,,,,,,,,,,,,,,,,,,,,,,,,,,,,,,,,219.97285669999837,220.05377639998915,220.48756939999294,220.4875808999932,220.98892109999724,,221.28786579999723,221.28787609998835,222.68248039999162,222.68248039999162,224.15454869999667,right,0,1.4574766000005184,None,223.48759799999243,,,,,,,,,,,,,,,,,,,,,,,,,,,,,,,,,,,,,,,,,,,,,,,,,,,,,,,,,,,,,,002,001,2023-11-12_13h46.20.064,untitled,2023.2.3,60.361796536378186,2023-11-12 13h46.29.105285 +0800,
2,condition_1/rightstar.PNG,space,,,,,1,19,44,21,,,,,,,,,224.22181979999004,,,,,,,,,,,,,,,,,,,,,,,,,,,,,,,,,,,,,,,,,,,,,224.1549057999946,224.22181979999004,224.67042139999103,224.6704422999901,225.15407389999018,225.63774209999247,225.43747679999797,225.43748699998832,226.79837350000162,226.79837350000162,227.75495349999983,right,0,0.9515910000045551,None,227.60468409999157,,,,,,,,,,,,,,,,,,,,,,,,,,,,,,,,,,,,,,,,,,,,,,,,,,,,,,,,,,,,,,002,001,2023-11-12_13h46.20.064,untitled,2023.2.3,60.361796536378186,2023-11-12 13h46.29.105285 +0800,
9,condition_1/leftstar.PNG,left,,,,,1,20,45,19,,,,,,,,,227.82356900000013,,,,,,,,,,,,,,,,,,,,,,,,,,,,,,,,,,,,,,,,,,,,,227.75538449999294,227.82356900000013,228.2709160999948,228.27092689998972,228.75530499999877,229.25466669999878,229.05495350000274,229.05496389999462,230.37041379998846,230.37041379998846,231.43810519999533,space,0,1.0541627000056906,None,231.17110449999745,,,,,,,,,,,,,,,,,,,,,,,,,,,,,,,,,,,,,,,,,,,,,,,,,,,,,,,,,,,,,,002,001,2023-11-12_13h46.20.064,untitled,2023.2.3,60.361796536378186,2023-11-12 13h46.29.105285 +0800,
9,condition_1/rightstar.PNG,right,,,,,1,21,46,7,,,,,,,,,231.50864459999138,,,,,,,,,,,,,,,,,,,,,,,,,,,,,,,,,,,,,,,,,,,,,231.4384713999898,231.50864459999138,231.95376140000008,231.95377290000033,232.45376279999618,232.92197539999324,232.7376879999938,232.73769840000023,234.03741109999828,234.03741109999828,234.6549750999984,right,1,0.6037588999897707,None,,,,,,,,,,,,,,,,,,,,,,,,,,,,,,,,,,,,,,,,,,,,,,,,,,,,,,,,,,,,,,,002,001,2023-11-12_13h46.20.064,untitled,2023.2.3,60.361796536378186,2023-11-12 13h46.29.105285 +0800,
1,condition_1/rightstar.PNG,space,,,,,1,22,47,12,,,,,,,,,234.72518989999662,,,,,,,,,,,,,,,,,,,,,,,,,,,,,,,,,,,,,,,,,,,,,234.6553311000025,234.72518989999662,235.17099079999025,235.17100149999897,235.65428219999012,236.1378767999995,235.93812099999923,235.9381338999956,237.27046410000185,237.27046410000185,238.27096660000097,right,0,0.9936344000016106,None,238.07069639999827,,,,,,,,,,,,,,,,,,,,,,,,,,,,,,,,,,,,,,,,,,,,,,,,,,,,,,,,,,,,,,002,001,2023-11-12_13h46.20.064,untitled,2023.2.3,60.361796536378186,2023-11-12 13h46.29.105285 +0800,
8,condition_1/blank.PNG,space,,,,,1,23,48,10,,,,,,,,,238.35431179999432,,,,,,,,,,,,,,,,,,,,,,,,,,,,,,,,,,,,,,,,,,,,,238.27134939999087,238.35431179999432,238.7875900999934,238.78760139999213,239.27148289998877,239.58817299999646,239.5555575999897,239.55556769999384,240.970542199997,240.970542199997,242.83879919999163,space,1,1.8520584999932908,None,241.77076349999697,,,,,,,,,,,,,,,,,,,,,,,,,,,,,,,,,,,,,,,,,,,,,,,,,,,,,,,,,,,,,,002,001,2023-11-12_13h46.20.064,untitled,2023.2.3,60.361796536378186,2023-11-12 13h46.29.105285 +0800,
2,condition_1/blank.PNG,space,,,,,1,24,49,9,,,,,,,,,242.90558239999518,,,,,,,,,,,,,,,,,,,,,,,,,,,,,,,,,,,,,,,,,,,,,242.8392041999905,242.90558239999518,243.35408839999582,243.3541062000004,243.85376259998884,244.16991849998885,244.13739419999183,244.13740419999522,245.4539689999947,245.4539689999947,246.4718511999963,space,1,1.0010483999940334,None,246.2573706999974,,,,,,,,,,,,,,,,,,,,,,,,,,,,,,,,,,,,,,,,,,,,,,,,,,,,,,,,,,,,,,002,001,2023-11-12_13h46.20.064,untitled,2023.2.3,60.361796536378186,2023-11-12 13h46.29.105285 +0800,
,,,,,,,,,,,,,,,,,,,,,,,,,,,,,,,,,,,,,,,,,,,,,,,,,,,,,,,,,,,,,,,,,,,,,,,,,,,,,,,,246.47222749999491,246.48721059999662,246.48721059999662,281.337812999991,space,34.83766679999826,None,,,,,,,,,,,,,,,,,,,,,,,,,,,,,,,,,,,,,,,,,,,,,,,,,,,,,,,002,001,2023-11-12_13h46.20.064,untitled,2023.2.3,60.361796536378186,2023-11-12 13h46.29.105285 +0800,
,,,,,,,,,,,,,,,,,,,,,,,,,,,,,,,,,,,,,,,,,,,,,,,,,,,,,,,,,,,,,,,,,,,,,,,,,,,,,,,,,,,,,,,281.3378410000005,281.35374419999425,281.35374419999425,301.2716194999957,space,19.910925000003772,None,,,,,,,,,,,,,,,,,,,,,,,,,,,,,,,,,,,,,,,,,,,,,,,,002,001,2023-11-12_13h46.20.064,untitled,2023.2.3,60.361796536378186,2023-11-12 13h46.29.105285 +0800,
8,test2/rightstar.PNG,space,,,,,,,,,0,0,0,1,,,,,301.37007799999265,,,,,,,,,,,,,,,,,,,,,,,,,,,,,,,,,,,,,,,,,,,,,,,,,,,,,,,,,,,,,,,,,,,,,,,,,,,301.2876382999966,301.37007799999265,301.7878902999946,301.7879011999903,302.2704670999956,302.73794039999484,302.55489379999926,302.55490719999943,303.8727656999981,303.8727656999981,304.68716859999404,304.85454629999003,space,0.9653907000028994,None,,,,,,,,,,,,,,,,,,,,,,,,,,,,,,,,,002,001,2023-11-12_13h46.20.064,untitled,2023.2.3,60.361796536378186,2023-11-12 13h46.29.105285 +0800,
1,test2/blank.PNG,space,,,,,,,,,0,1,1,2,,,,,304.92283840000164,,,,,,,,,,,,,,,,,,,,,,,,,,,,,,,,,,,,,,,,,,,,,,,,,,,,,,,,,,,,,,,,,,,,,,,,,,,304.85502849999466,304.92283840000164,305.3552726999915,305.3552994999918,305.85516399999324,306.20438999999897,306.154687199989,306.1547003000014,307.55328209999425,307.55328209999425,,307.754746599996,left,0.1969167000061134,None,,,,,,,,,,,,,,,,,,,,,,,,,,,,,,,,,002,001,2023-11-12_13h46.20.064,untitled,2023.2.3,60.361796536378186,2023-11-12 13h46.29.105285 +0800,
1,test2/leftstar.PNG,left,,,,,,,,,0,2,2,0,,,,,307.8231206999917,,,,,,,,,,,,,,,,,,,,,,,,,,,,,,,,,,,,,,,,,,,,,,,,,,,,,,,,,,,,,,,,,,,,,,,,,,,307.7551586999907,307.8231206999917,308.27050659999077,308.2705194000009,308.75410019999254,309.2208982000011,309.0378281000012,309.03783979998843,310.42094989999896,310.42094989999896,,310.75499649999256,left,0.3235549999953946,None,,,,,,,,,,,,,,,,,,,,,,,,,,,,,,,,,002,001,2023-11-12_13h46.20.064,untitled,2023.2.3,60.361796536378186,2023-11-12 13h46.29.105285 +0800,
9,test2/rightstar.PNG,space,,,,,,,,,0,3,3,3,,,,,310.8372157999984,,,,,,,,,,,,,,,,,,,,,,,,,,,,,,,,,,,,,,,,,,,,,,,,,,,,,,,,,,,,,,,,,,,,,,,,,,,310.75561229999585,310.8372157999984,311.2705571999977,311.27056819999416,311.7547568000009,312.2046522000019,312.03790850000223,312.0379213999986,313.3703693999996,313.3703693999996,,313.8894997000025,space,0.5044957999925828,None,,,,,,,,,,,,,,,,,,,,,,,,,,,,,,,,,002,001,2023-11-12_13h46.20.064,untitled,2023.2.3,60.361796536378186,2023-11-12 13h46.29.105285 +0800,
2,test2/leftstar.PNG,left,,,,,,,,,0,4,4,4,,,,,313.9708035999938,,,,,,,,,,,,,,,,,,,,,,,,,,,,,,,,,,,,,,,,,,,,,,,,,,,,,,,,,,,,,,,,,,,,,,,,,,,313.88984969999,313.9708035999938,314.4046765999956,314.40468829999736,314.9050392999925,315.3538303999958,315.1883106000023,315.18832329999714,316.50377329999174,316.50377329999174,,316.92091139999684,left,0.4008858000015607,None,,,,,,,,,,,,,,,,,,,,,,,,,,,,,,,,,002,001,2023-11-12_13h46.20.064,untitled,2023.2.3,60.361796536378186,2023-11-12 13h46.29.105285 +0800,
8,test2/rightstar.PNG,space,,,,,,,,,0,5,5,5,,,,,316.9889583999902,,,,,,,,,,,,,,,,,,,,,,,,,,,,,,,,,,,,,,,,,,,,,,,,,,,,,,,,,,,,,,,,,,,,,,,,,,,316.9212254000013,316.9889583999902,317.4374759999919,317.43748749999213,317.9207222999976,318.3704685999983,318.2048836999893,318.204897299991,319.5206174999912,319.5206174999912,,319.77211179998994,space,0.2376627999910852,None,,,,,,,,,,,,,,,,,,,,,,,,,,,,,,,,,002,001,2023-11-12_13h46.20.064,untitled,2023.2.3,60.361796536378186,2023-11-12 13h46.29.105285 +0800,
,,,,,,,,,,,,,,,,,,,,,,,,,,,,,,,,,,,,,,,,,,,,,,,,,,,,,,,,,,,,,,,,,,,,,,,,,,,,,,,,,,,,,,,,,,,,,,,,,,,,,,,,,,,,,319.7723543999891,319.7887508999993,319.7887508999993,320.8064499999891,324.2912723999907,space,4.500559799998882,None,,,,,,,,,,,,,,,,,,,,,,,,,002,001,2023-11-12_13h46.20.064,untitled,2023.2.3,60.361796536378186,2023-11-12 13h46.29.105285 +0800,
,,,,,,,,,,,,,,,,,,,,,,,,,,,,,,,,,,,,,,,,,,,,,,,,,,,,,,,,,,,,,,,,,,,,,,,,,,,,,,,,,,,,,,,,,,,,,,,,,,,,,,,,,,,,,,,,,,,,,324.29130859998986,324.303872199991,324.303872199991,325.3054795999924,325.5725134999957,space,1.265451800005394,None,,,,,,,,,,,,,,,,,002,001,2023-11-12_13h46.20.064,untitled,2023.2.3,60.361796536378186,2023-11-12 13h46.29.105285 +0800,
1,condition_2/rightstar.PNG,right,,,,,,,,,,,,,0,0,0,21,325.6696923999989,,,,,,,,,,,,,,,,,,,,,,,,,,,,,,,,,,,,,,,,,,,,,,,,,,,,,,,,,,,,,,,,,,,,,,,,,,,,,,,,,,,,,,,,,,,,,,,,,,,,,,,,,,325.58930490000057,325.6696923999989,326.0871494999883,326.08716289998847,326.57209780000267,327.0719631999964,326.8718494999921,326.87186349999683,328.19945089999237,328.19945089999237,328.3051926999906,space,0,0.09251319999748375,None,,002,001,2023-11-12_13h46.20.064,untitled,2023.2.3,60.361796536378186,2023-11-12 13h46.29.105285 +0800,
1,condition_2/leftstar.PNG,left,,,,,,,,,,,,,0,1,1,0,328.3771126999927,,,,,,,,,,,,,,,,,,,,,,,,,,,,,,,,,,,,,,,,,,,,,,,,,,,,,,,,,,,,,,,,,,,,,,,,,,,,,,,,,,,,,,,,,,,,,,,,,,,,,,,,,,328.3059221000003,328.3771126999927,328.8207429999893,328.82075579999946,329.3211250000022,,329.62061829998856,329.6206306999957,330.92102689998865,330.92102689998865,331.35493979998864,left,1,0.4236316999886185,None,,002,001,2023-11-12_13h46.20.064,untitled,2023.2.3,60.361796536378186,2023-11-12 13h46.29.105285 +0800,
2,condition_2/blank.PNG,space,,,,,,,,,,,,,0,2,2,9,331.4369827999908,,,,,,,,,,,,,,,,,,,,,,,,,,,,,,,,,,,,,,,,,,,,,,,,,,,,,,,,,,,,,,,,,,,,,,,,,,,,,,,,,,,,,,,,,,,,,,,,,,,,,,,,,,331.35530599999765,331.4369827999908,331.8711137999926,331.87112609999895,332.3543129000027,332.67094529999304,332.6378585999919,332.6378696999891,334.1204425999895,334.1204425999895,334.28798929999175,space,1,0.15248140000039712,None,,002,001,2023-11-12_13h46.20.064,untitled,2023.2.3,60.361796536378186,2023-11-12 13h46.29.105285 +0800,
1,condition_2/rightstar.PNG,right,,,,,,,,,,,,,0,3,3,4,334.35478379999404,,,,,,,,,,,,,,,,,,,,,,,,,,,,,,,,,,,,,,,,,,,,,,,,,,,,,,,,,,,,,,,,,,,,,,,,,,,,,,,,,,,,,,,,,,,,,,,,,,,,,,,,,,334.2884001999919,334.35478379999404,334.8042846999888,334.8042967999936,335.2875294999976,335.75431469999603,335.5716681999911,335.5716828000004,336.9269143999991,336.9269143999991,337.33754319998843,right,1,0.40168870000343304,None,,002,001,2023-11-12_13h46.20.064,untitled,2023.2.3,60.361796536378186,2023-11-12 13h46.29.105285 +0800,
2,condition_2/leftstar.PNG,left,,,,,,,,,,,,,0,4,4,1,337.4152566999983,,,,,,,,,,,,,,,,,,,,,,,,,,,,,,,,,,,,,,,,,,,,,,,,,,,,,,,,,,,,,,,,,,,,,,,,,,,,,,,,,,,,,,,,,,,,,,,,,,,,,,,,,,337.33790499999304,337.4152566999983,337.8392612999887,337.83928499999456,338.33769629999006,338.8044203999889,338.6220775999973,338.62209129999974,339.9370110000018,339.9370110000018,340.6057626999973,left,1,0.654222099998151,None,,002,001,2023-11-12_13h46.20.064,untitled,2023.2.3,60.361796536378186,2023-11-12 13h46.29.105285 +0800,
9,condition_2/blank.PNG,space,,,,,,,,,,,,,0,5,5,11,340.6764053999941,,,,,,,,,,,,,,,,,,,,,,,,,,,,,,,,,,,,,,,,,,,,,,,,,,,,,,,,,,,,,,,,,,,,,,,,,,,,,,,,,,,,,,,,,,,,,,,,,,,,,,,,,,340.6061929999996,340.6764053999941,341.12093239999376,341.12094409999554,341.6211593999906,341.9375219999929,341.9043965000019,341.90440939999826,343.320922599989,343.320922599989,343.3882530999981,space,1,0.06500030000461265,None,,002,001,2023-11-12_13h46.20.064,untitled,2023.2.3,60.361796536378186,2023-11-12 13h46.29.105285 +0800,
9,condition_2/rightstar.PNG,space,,,,,,,,,,,,,0,6,6,15,343.45594299999357,,,,,,,,,,,,,,,,,,,,,,,,,,,,,,,,,,,,,,,,,,,,,,,,,,,,,,,,,,,,,,,,,,,,,,,,,,,,,,,,,,,,,,,,,,,,,,,,,,,,,,,,,,343.3886225000024,343.45594299999357,343.8892690999928,343.8892962999962,344.3877358000027,344.87125469998864,344.67107450000185,344.671087499999,346.0250909000024,346.0250909000024,346.3882040999888,space,1,0.3546743000042625,None,,002,001,2023-11-12_13h46.20.064,untitled,2023.2.3,60.361796536378186,2023-11-12 13h46.29.105285 +0800,
1,condition_2/leftstar.PNG,left,,,,,,,,,,,,,0,7,7,16,346.4654470999958,,,,,,,,,,,,,,,,,,,,,,,,,,,,,,,,,,,,,,,,,,,,,,,,,,,,,,,,,,,,,,,,,,,,,,,,,,,,,,,,,,,,,,,,,,,,,,,,,,,,,,,,,,346.3885842000018,346.4654470999958,346.90369429999555,346.9037057999958,347.40409219999856,347.8713452999946,347.6877453999914,347.6877577999985,348.9865359999967,348.9865359999967,349.40483079999103,left,1,0.40398370000184514,None,,002,001,2023-11-12_13h46.20.064,untitled,2023.2.3,60.361796536378186,2023-11-12 13h46.29.105285 +0800,
2,condition_2/rightstar.PNG,right,,,,,,,,,,,,,0,8,8,13,349.48696209999616,,,,,,,,,,,,,,,,,,,,,,,,,,,,,,,,,,,,,,,,,,,,,,,,,,,,,,,,,,,,,,,,,,,,,,,,,,,,,,,,,,,,,,,,,,,,,,,,,,,,,,,,,,349.40522289999353,349.48696209999616,349.9207288999896,349.9207425999921,350.40451629999734,350.87113939999836,350.68776400000206,350.6877843999973,352.0052394999948,352.0052394999948,352.4045887999964,right,1,0.3873079999902984,None,,002,001,2023-11-12_13h46.20.064,untitled,2023.2.3,60.361796536378186,2023-11-12 13h46.29.105285 +0800,
1,condition_2/blank.PNG,space,,,,,,,,,,,,,0,9,9,8,352.48048669999116,,,,,,,,,,,,,,,,,,,,,,,,,,,,,,,,,,,,,,,,,,,,,,,,,,,,,,,,,,,,,,,,,,,,,,,,,,,,,,,,,,,,,,,,,,,,,,,,,,,,,,,,,,352.40503049999825,352.48048669999116,352.92092859999684,352.9209400999971,353.40398459999415,353.7241648999916,353.6881323999987,353.6881444000028,355.0870056999993,355.0870056999993,356.5043333999929,space,1,1.4079995999927633,None,355.8870978999912,002,001,2023-11-12_13h46.20.064,untitled,2023.2.3,60.361796536378186,2023-11-12 13h46.29.105285 +0800,
8,condition_2/rightstar.PNG,space,,,,,,,,,,,,,0,10,10,14,356.5720353999932,,,,,,,,,,,,,,,,,,,,,,,,,,,,,,,,,,,,,,,,,,,,,,,,,,,,,,,,,,,,,,,,,,,,,,,,,,,,,,,,,,,,,,,,,,,,,,,,,,,,,,,,,,356.5047135999921,356.5720353999932,357.0210822999943,357.0210941999976,357.50439180000103,357.97103600000264,357.78813770000124,357.788149,359.138498100001,359.138498100001,359.5729786000011,right,0,0.43315650000295136,None,,002,001,2023-11-12_13h46.20.064,untitled,2023.2.3,60.361796536378186,2023-11-12 13h46.29.105285 +0800,
2,condition_2/leftstar.PNG,left,,,,,,,,,,,,,0,11,11,22,359.6397250000009,,,,,,,,,,,,,,,,,,,,,,,,,,,,,,,,,,,,,,,,,,,,,,,,,,,,,,,,,,,,,,,,,,,,,,,,,,,,,,,,,,,,,,,,,,,,,,,,,,,,,,,,,,359.57341409999935,359.6397250000009,360.08774119999725,360.08775510000123,360.58864789998916,,360.8874305999925,360.8874434999889,362.18688909999037,362.18688909999037,362.69084080000175,left,1,0.5002838000073098,None,,002,001,2023-11-12_13h46.20.064,untitled,2023.2.3,60.361796536378186,2023-11-12 13h46.29.105285 +0800,
8,condition_2/rightstar.PNG,space,,,,,,,,,,,,,0,12,12,23,362.77027179999277,,,,,,,,,,,,,,,,,,,,,,,,,,,,,,,,,,,,,,,,,,,,,,,,,,,,,,,,,,,,,,,,,,,,,,,,,,,,,,,,,,,,,,,,,,,,,,,,,,,,,,,,,,362.6913855999883,362.77027179999277,363.2040762999968,363.20408899999165,363.7040260999929,364.15478859998984,363.98804830000154,363.98806269999477,365.303674099996,365.303674099996,365.8052144999965,right,0,0.4987680000049295,None,,002,001,2023-11-12_13h46.20.064,untitled,2023.2.3,60.361796536378186,2023-11-12 13h46.29.105285 +0800,
8,condition_2/leftstar.PNG,space,,,,,,,,,,,,,0,13,13,2,365.87840889999643,,,,,,,,,,,,,,,,,,,,,,,,,,,,,,,,,,,,,,,,,,,,,,,,,,,,,,,,,,,,,,,,,,,,,,,,,,,,,,,,,,,,,,,,,,,,,,,,,,,,,,,,,,365.8055858000007,365.87840889999643,366.3210532999947,366.32106589998875,366.8207206999941,367.2876314999885,367.1044358999934,367.10444819999975,368.42047489999095,368.42047489999095,369.25476060000074,space,1,0.8312456000130624,None,369.2204158999957,002,001,2023-11-12_13h46.20.064,untitled,2023.2.3,60.361796536378186,2023-11-12 13h46.29.105285 +0800,
9,condition_2/rightstar.PNG,space,,,,,,,,,,,,,0,14,14,7,369.32225529999414,,,,,,,,,,,,,,,,,,,,,,,,,,,,,,,,,,,,,,,,,,,,,,,,,,,,,,,,,,,,,,,,,,,,,,,,,,,,,,,,,,,,,,,,,,,,,,,,,,,,,,,,,,369.2553173999913,369.32225529999414,369.7720941000007,369.77211569999054,370.2544424999942,370.7378211999894,370.5378345999925,370.5378480999934,371.85347799999,371.85347799999,372.55478340000263,space,1,0.6898368999973172,None,,002,001,2023-11-12_13h46.20.064,untitled,2023.2.3,60.361796536378186,2023-11-12 13h46.29.105285 +0800,
2,condition_2/blank.PNG,space,,,,,,,,,,,,,0,15,15,20,372.6368839999923,,,,,,,,,,,,,,,,,,,,,,,,,,,,,,,,,,,,,,,,,,,,,,,,,,,,,,,,,,,,,,,,,,,,,,,,,,,,,,,,,,,,,,,,,,,,,,,,,,,,,,,,,,372.55513369999244,372.6368839999923,373.0709651999932,373.0709774999996,373.55428089998895,373.87058190000243,373.83820159999595,373.83821269999316,375.2538238999987,375.2538238999987,376.6562549999944,space,1,1.3851761999976588,None,376.0538865999988,002,001,2023-11-12_13h46.20.064,untitled,2023.2.3,60.361796536378186,2023-11-12 13h46.29.105285 +0800,
9,condition_2/leftstar.PNG,space,,,,,,,,,,,,,0,16,16,19,376.7378042999917,,,,,,,,,,,,,,,,,,,,,,,,,,,,,,,,,,,,,,,,,,,,,,,,,,,,,,,,,,,,,,,,,,,,,,,,,,,,,,,,,,,,,,,,,,,,,,,,,,,,,,,,,,376.65705660000094,376.7378042999917,377.1709966999915,377.17100829999254,377.67123880000145,378.1540077999962,377.95423180000216,377.95424719998846,379.3208458000008,379.3208458000008,379.988637699993,left,0,0.6505343000026187,None,,002,001,2023-11-12_13h46.20.064,untitled,2023.2.3,60.361796536378186,2023-11-12 13h46.29.105285 +0800,
8,condition_2/rightstar.PNG,space,,,,,,,,,,,,,0,17,17,6,380.0708791999932,,,,,,,,,,,,,,,,,,,,,,,,,,,,,,,,,,,,,,,,,,,,,,,,,,,,,,,,,,,,,,,,,,,,,,,,,,,,,,,,,,,,,,,,,,,,,,,,,,,,,,,,,,379.98929569999746,380.0708791999932,380.50405150000006,380.5040643999964,381.00476250000065,381.48832360000233,381.28793629999564,381.2879469999898,382.6040232999949,382.6040232999949,383.45412809999834,space,1,0.8458833000040613,None,383.40352469999925,002,001,2023-11-12_13h46.20.064,untitled,2023.2.3,60.361796536378186,2023-11-12 13h46.29.105285 +0800,
2,condition_2/leftstar.PNG,left,,,,,,,,,,,,,0,18,18,17,383.53791079999064,,,,,,,,,,,,,,,,,,,,,,,,,,,,,,,,,,,,,,,,,,,,,,,,,,,,,,,,,,,,,,,,,,,,,,,,,,,,,,,,,,,,,,,,,,,,,,,,,,,,,,,,,,383.4546834999928,383.53791079999064,383.9705987999914,383.9706102999917,384.45433539999067,384.9377184999903,384.73814409998886,384.73815540000214,386.0535993999947,386.0535993999947,386.8725689999992,left,1,0.8079956000001403,None,386.8548709000024,002,001,2023-11-12_13h46.20.064,untitled,2023.2.3,60.361796536378186,2023-11-12 13h46.29.105285 +0800,
1,condition_2/rightstar.PNG,right,,,,,,,,,,,,,0,19,19,12,386.94096490000084,,,,,,,,,,,,,,,,,,,,,,,,,,,,,,,,,,,,,,,,,,,,,,,,,,,,,,,,,,,,,,,,,,,,,,,,,,,,,,,,,,,,,,,,,,,,,,,,,,,,,,,,,,386.87293820000195,386.94096490000084,387.38738889999513,387.38740049999615,387.8884754000028,388.3542071999982,388.17128769999545,388.1713005999918,389.48781989999407,389.48781989999407,389.5382291999995,space,0,0.04437780000444036,None,,002,001,2023-11-12_13h46.20.064,untitled,2023.2.3,60.361796536378186,2023-11-12 13h46.29.105285 +0800,
2,condition_2/rightstar.PNG,left,,,,,,,,,,,,,0,20,20,5,389.6085028999951,,,,,,,,,,,,,,,,,,,,,,,,,,,,,,,,,,,,,,,,,,,,,,,,,,,,,,,,,,,,,,,,,,,,,,,,,,,,,,,,,,,,,,,,,,,,,,,,,,,,,,,,,,389.53865859999496,389.6085028999951,390.0544794000016,390.05449119998957,390.53869279999344,391.0209088999982,390.83840009999403,390.83841359999496,392.1534821999958,392.1534821999958,392.7727479999885,right,0,0.6171510999993188,None,,002,001,2023-11-12_13h46.20.064,untitled,2023.2.3,60.361796536378186,2023-11-12 13h46.29.105285 +0800,
8,condition_2/blank.PNG,space,,,,,,,,,,,,,0,21,21,10,392.85361259999627,,,,,,,,,,,,,,,,,,,,,,,,,,,,,,,,,,,,,,,,,,,,,,,,,,,,,,,,,,,,,,,,,,,,,,,,,,,,,,,,,,,,,,,,,,,,,,,,,,,,,,,,,,392.77318560000276,392.85361259999627,393.28777389999595,393.28778669999156,393.7872328999947,394.1033255999937,394.0712629999907,394.0712826999952,395.47725339999306,395.47725339999306,395.6209672999976,space,1,0.13078179999138229,None,,002,001,2023-11-12_13h46.20.064,untitled,2023.2.3,60.361796536378186,2023-11-12 13h46.29.105285 +0800,
9,condition_2/leftstar.PNG,space,,,,,,,,,,,,,0,22,22,24,395.68873539999186,,,,,,,,,,,,,,,,,,,,,,,,,,,,,,,,,,,,,,,,,,,,,,,,,,,,,,,,,,,,,,,,,,,,,,,,,,,,,,,,,,,,,,,,,,,,,,,,,,,,,,,,,,395.6213393999933,395.68873539999186,396.13762490000227,396.1376368999918,396.6200622999895,397.10409579999396,396.90545989999373,396.90547179999703,398.2594517999969,398.2594517999969,402.4875049999973,space,1,4.216087299995706,None,399.07020309999643,002,001,2023-11-12_13h46.20.064,untitled,2023.2.3,60.361796536378186,2023-11-12 13h46.29.105285 +0800,
9,condition_2/leftstar.PNG,space,,,,,,,,,,,,,0,23,23,3,402.5707037999964,,,,,,,,,,,,,,,,,,,,,,,,,,,,,,,,,,,,,,,,,,,,,,,,,,,,,,,,,,,,,,,,,,,,,,,,,,,,,,,,,,,,,,,,,,,,,,,,,,,,,,,,,,402.4880187999952,402.5707037999964,403.00357649999205,403.0035887999984,403.4880539000005,403.95448819999,403.7709795999981,403.7709973000019,405.0870311999897,405.0870311999897,405.52172649999557,space,1,0.42397419999178965,None,,002,001,2023-11-12_13h46.20.064,untitled,2023.2.3,60.361796536378186,2023-11-12 13h46.29.105285 +0800,
8,condition_2/leftstar.PNG,space,,,,,,,,,,,,,0,24,24,18,405.6051671000023,,,,,,,,,,,,,,,,,,,,,,,,,,,,,,,,,,,,,,,,,,,,,,,,,,,,,,,,,,,,,,,,,,,,,,,,,,,,,,,,,,,,,,,,,,,,,,,,,,,,,,,,,,405.52210000000196,405.6051671000023,406.0376472999924,406.03766069999256,406.52162909999606,407.00451859999157,406.8209330999962,406.82095149999077,408.1368239000003,408.1368239000003,408.47166840000136,space,1,0.3177905000047758,None,,002,001,2023-11-12_13h46.20.064,untitled,2023.2.3,60.361796536378186,2023-11-12 13h46.29.105285 +0800,
2,condition_2/rightstar.PNG,left,,,,,,,,,,,,,1,0,25,5,408.5535932999919,,,,,,,,,,,,,,,,,,,,,,,,,,,,,,,,,,,,,,,,,,,,,,,,,,,,,,,,,,,,,,,,,,,,,,,,,,,,,,,,,,,,,,,,,,,,,,,,,,,,,,,,,,408.47204339999007,408.5535932999919,408.98782719999144,408.9878386999917,409.487555300002,409.9708027000015,409.77124950000143,409.7712603999971,411.07207840000046,411.07207840000046,411.48803249999764,right,0,0.4031037999957334,None,,002,001,2023-11-12_13h46.20.064,untitled,2023.2.3,60.361796536378186,2023-11-12 13h46.29.105285 +0800,
2,condition_2/blank.PNG,space,,,,,,,,,,,,,1,1,26,20,411.57035399999586,,,,,,,,,,,,,,,,,,,,,,,,,,,,,,,,,,,,,,,,,,,,,,,,,,,,,,,,,,,,,,,,,,,,,,,,,,,,,,,,,,,,,,,,,,,,,,,,,,,,,,,,,,411.4886109999934,411.57035399999586,412.0041881999932,412.0042015999934,412.4882440999936,412.80318940000143,412.7712220999965,412.7712335999968,414.19789299998956,414.19789299998956,415.12109259999124,space,1,0.9079478000057861,None,415.00377929999377,002,001,2023-11-12_13h46.20.064,untitled,2023.2.3,60.361796536378186,2023-11-12 13h46.29.105285 +0800,
8,condition_2/rightstar.PNG,space,,,,,,,,,,,,,1,2,27,6,415.19007599999895,,,,,,,,,,,,,,,,,,,,,,,,,,,,,,,,,,,,,,,,,,,,,,,,,,,,,,,,,,,,,,,,,,,,,,,,,,,,,,,,,,,,,,,,,,,,,,,,,,,,,,,,,,415.12149320000026,415.19007599999895,415.6375285999966,415.6375399999961,416.1204274999909,416.5877971000009,416.40394659999583,416.40395769999304,417.75742419999733,417.75742419999733,418.6711004999961,space,1,0.9057180000090739,None,418.5705975000019,002,001,2023-11-12_13h46.20.064,untitled,2023.2.3,60.361796536378186,2023-11-12 13h46.29.105285 +0800,
1,condition_2/blank.PNG,space,,,,,,,,,,,,,1,3,28,8,418.73628279998957,,,,,,,,,,,,,,,,,,,,,,,,,,,,,,,,,,,,,,,,,,,,,,,,,,,,,,,,,,,,,,,,,,,,,,,,,,,,,,,,,,,,,,,,,,,,,,,,,,,,,,,,,,418.6714742999902,418.73628279998957,419.1874218000012,419.18743389999145,419.6718264999945,420.0031783000013,419.9709756999946,419.97098939999705,421.3869976999995,421.3869976999995,422.0544627999916,space,1,0.663650400005281,None,,002,001,2023-11-12_13h46.20.064,untitled,2023.2.3,60.361796536378186,2023-11-12 13h46.29.105285 +0800,
8,condition_2/blank.PNG,space,,,,,,,,,,,,,1,4,29,10,422.12133009999525,,,,,,,,,,,,,,,,,,,,,,,,,,,,,,,,,,,,,,,,,,,,,,,,,,,,,,,,,,,,,,,,,,,,,,,,,,,,,,,,,,,,,,,,,,,,,,,,,,,,,,,,,,422.0548424000008,422.12133009999525,422.55562459999055,422.55563629999233,423.07085029999143,,423.3548398999992,423.354852199991,424.6533874000015,424.6533874000015,425.137722799991,space,1,0.4706095000001369,None,,002,001,2023-11-12_13h46.20.064,untitled,2023.2.3,60.361796536378186,2023-11-12 13h46.29.105285 +0800,
1,condition_2/rightstar.PNG,right,,,,,,,,,,,,,1,5,30,12,425.2083100000018,,,,,,,,,,,,,,,,,,,,,,,,,,,,,,,,,,,,,,,,,,,,,,,,,,,,,,,,,,,,,,,,,,,,,,,,,,,,,,,,,,,,,,,,,,,,,,,,,,,,,,,,,,425.13810809999995,425.2083100000018,425.65495899999223,425.6549711999978,426.1374080999958,426.6211719999992,426.42106319998857,426.42107399999804,427.7744803999958,427.7744803999958,428.20471809999435,right,1,0.4229653999937,None,,002,001,2023-11-12_13h46.20.064,untitled,2023.2.3,60.361796536378186,2023-11-12 13h46.29.105285 +0800,
9,condition_2/leftstar.PNG,space,,,,,,,,,,,,,1,6,31,19,428.27729849999014,,,,,,,,,,,,,,,,,,,,,,,,,,,,,,,,,,,,,,,,,,,,,,,,,,,,,,,,,,,,,,,,,,,,,,,,,,,,,,,,,,,,,,,,,,,,,,,,,,,,,,,,,,428.2050777999975,428.27729849999014,428.70525369999814,428.70526649999374,429.2047486999945,429.6872750999901,429.48830859999,429.4883262999938,430.804366700002,430.804366700002,431.387954299993,space,1,0.5803071999980602,None,,002,001,2023-11-12_13h46.20.064,untitled,2023.2.3,60.361796536378186,2023-11-12 13h46.29.105285 +0800,
9,condition_2/leftstar.PNG,space,,,,,,,,,,,,,1,7,32,24,431.4706543999928,,,,,,,,,,,,,,,,,,,,,,,,,,,,,,,,,,,,,,,,,,,,,,,,,,,,,,,,,,,,,,,,,,,,,,,,,,,,,,,,,,,,,,,,,,,,,,,,,,,,,,,,,,431.3883186999883,431.4706543999928,431.9042507999984,431.90426260000095,432.3873631000024,432.8707165999949,432.67128429999866,432.6712957999989,433.98669099999825,433.98669099999825,434.40440109999327,space,1,0.40126739999686833,None,,002,001,2023-11-12_13h46.20.064,untitled,2023.2.3,60.361796536378186,2023-11-12 13h46.29.105285 +0800,
8,condition_2/rightstar.PNG,space,,,,,,,,,,,,,1,8,33,14,434.48701149999397,,,,,,,,,,,,,,,,,,,,,,,,,,,,,,,,,,,,,,,,,,,,,,,,,,,,,,,,,,,,,,,,,,,,,,,,,,,,,,,,,,,,,,,,,,,,,,,,,,,,,,,,,,434.40476439999475,434.48701149999397,434.9207447999943,434.92075920000207,435.40391719999025,435.88739540000097,435.68866829999024,435.6886813000019,437.00362059999316,437.00362059999316,437.4045601999969,space,1,0.39583230001153424,None,,002,001,2023-11-12_13h46.20.064,untitled,2023.2.3,60.361796536378186,2023-11-12 13h46.29.105285 +0800,
8,condition_2/rightstar.PNG,space,,,,,,,,,,,,,1,9,34,23,437.4756361999898,,,,,,,,,,,,,,,,,,,,,,,,,,,,,,,,,,,,,,,,,,,,,,,,,,,,,,,,,,,,,,,,,,,,,,,,,,,,,,,,,,,,,,,,,,,,,,,,,,,,,,,,,,437.4049946000014,437.4756361999898,437.92057360000035,437.92058499999985,438.4039436000021,438.87086219999765,438.6876742000022,438.6876873000001,440.02103389998956,440.02103389998956,440.6218793000007,space,1,0.5999320999981137,None,,002,001,2023-11-12_13h46.20.064,untitled,2023.2.3,60.361796536378186,2023-11-12 13h46.29.105285 +0800,
9,condition_2/rightstar.PNG,space,,,,,,,,,,,,,1,10,35,7,440.7037127999938,,,,,,,,,,,,,,,,,,,,,,,,,,,,,,,,,,,,,,,,,,,,,,,,,,,,,,,,,,,,,,,,,,,,,,,,,,,,,,,,,,,,,,,,,,,,,,,,,,,,,,,,,,440.6222385000001,440.7037127999938,441.1375035999954,441.1375165999925,441.63794419998885,442.120442200001,441.92100999999093,441.92102379999415,443.23681009998836,443.23681009998836,443.92134509999596,space,1,0.6689569000009215,None,,002,001,2023-11-12_13h46.20.064,untitled,2023.2.3,60.361796536378186,2023-11-12 13h46.29.105285 +0800,
1,condition_2/rightstar.PNG,right,,,,,,,,,,,,,1,11,36,4,443.99213240000245,,,,,,,,,,,,,,,,,,,,,,,,,,,,,,,,,,,,,,,,,,,,,,,,,,,,,,,,,,,,,,,,,,,,,,,,,,,,,,,,,,,,,,,,,,,,,,,,,,,,,,,,,,443.9218169999949,443.99213240000245,444.437795299993,444.4378080999886,444.9217421999929,445.3878196000005,445.20487219998904,445.2048971999902,446.5369001999934,446.5369001999934,446.9714143000019,right,1,0.43350420000206213,None,,002,001,2023-11-12_13h46.20.064,untitled,2023.2.3,60.361796536378186,2023-11-12 13h46.29.105285 +0800,
2,condition_2/leftstar.PNG,left,,,,,,,,,,,,,1,12,37,1,447.0535690999968,,,,,,,,,,,,,,,,,,,,,,,,,,,,,,,,,,,,,,,,,,,,,,,,,,,,,,,,,,,,,,,,,,,,,,,,,,,,,,,,,,,,,,,,,,,,,,,,,,,,,,,,,,446.9719538999925,447.0535690999968,447.4873047000001,447.4873163000011,447.9701142999984,448.43779769999674,448.2543493999983,448.2543607999978,449.5701635000005,449.5701635000005,450.08800429999246,left,1,0.5041452000004938,None,,002,001,2023-11-12_13h46.20.064,untitled,2023.2.3,60.361796536378186,2023-11-12 13h46.29.105285 +0800,
9,condition_2/blank.PNG,space,,,,,,,,,,,,,1,13,38,11,450.1550228999986,,,,,,,,,,,,,,,,,,,,,,,,,,,,,,,,,,,,,,,,,,,,,,,,,,,,,,,,,,,,,,,,,,,,,,,,,,,,,,,,,,,,,,,,,,,,,,,,,,,,,,,,,,450.08839589999116,450.1550228999986,450.60419959999854,450.60421209999186,451.0868874000007,451.4209525999904,451.37153289999696,451.37154459999874,452.8049822999892,452.8049822999892,455.3552922999952,space,1,2.547423700001673,None,453.60422429999744,002,001,2023-11-12_13h46.20.064,untitled,2023.2.3,60.361796536378186,2023-11-12 13h46.29.105285 +0800,
8,condition_2/leftstar.PNG,space,,,,,,,,,,,,,1,14,39,18,455.43813149999187,,,,,,,,,,,,,,,,,,,,,,,,,,,,,,,,,,,,,,,,,,,,,,,,,,,,,,,,,,,,,,,,,,,,,,,,,,,,,,,,,,,,,,,,,,,,,,,,,,,,,,,,,,455.35566809999,455.43813149999187,455.87074389999907,455.8707563999924,456.37144299999636,456.83802450000076,456.65543790000083,456.6554494000011,458.0071566999977,458.0071566999977,459.9213795999967,space,1,1.900388900001417,None,458.82124989999284,002,001,2023-11-12_13h46.20.064,untitled,2023.2.3,60.361796536378186,2023-11-12 13h46.29.105285 +0800,
2,condition_2/leftstar.PNG,left,,,,,,,,,,,,,1,15,40,17,459.98777100000007,,,,,,,,,,,,,,,,,,,,,,,,,,,,,,,,,,,,,,,,,,,,,,,,,,,,,,,,,,,,,,,,,,,,,,,,,,,,,,,,,,,,,,,,,,,,,,,,,,,,,,,,,,459.9219529999973,459.98777100000007,460.43777520000003,460.43778719998954,460.9374689999968,461.42093300000124,461.22126749999006,461.22127919999184,462.5198775000026,462.5198775000026,462.904498399992,left,1,0.37125369999557734,None,,002,001,2023-11-12_13h46.20.064,untitled,2023.2.3,60.361796536378186,2023-11-12 13h46.29.105285 +0800,
9,condition_2/leftstar.PNG,space,,,,,,,,,,,,,1,16,41,3,462.9877192999993,,,,,,,,,,,,,,,,,,,,,,,,,,,,,,,,,,,,,,,,,,,,,,,,,,,,,,,,,,,,,,,,,,,,,,,,,,,,,,,,,,,,,,,,,,,,,,,,,,,,,,,,,,462.90489730000263,462.9877192999993,463.4214331999974,463.4214447999984,463.9047864000022,464.3876971999998,464.18795609999506,464.1879685999884,465.50441670000146,465.50441670000146,466.137536299997,space,1,0.6178970000037225,None,,002,001,2023-11-12_13h46.20.064,untitled,2023.2.3,60.361796536378186,2023-11-12 13h46.29.105285 +0800,
8,condition_2/leftstar.PNG,space,,,,,,,,,,,,,1,17,42,2,466.22025589999976,,,,,,,,,,,,,,,,,,,,,,,,,,,,,,,,,,,,,,,,,,,,,,,,,,,,,,,,,,,,,,,,,,,,,,,,,,,,,,,,,,,,,,,,,,,,,,,,,,,,,,,,,,466.1379447999934,466.22025589999976,466.6553855999955,466.6553993999987,467.1370770999929,467.6207577000023,467.42091519999667,467.4209286999976,468.73748579999665,468.73748579999665,469.20490319999226,space,1,0.4655769999953918,None,,002,001,2023-11-12_13h46.20.064,untitled,2023.2.3,60.361796536378186,2023-11-12 13h46.29.105285 +0800,
9,condition_2/rightstar.PNG,space,,,,,,,,,,,,,1,18,43,15,469.27477550000185,,,,,,,,,,,,,,,,,,,,,,,,,,,,,,,,,,,,,,,,,,,,,,,,,,,,,,,,,,,,,,,,,,,,,,,,,,,,,,,,,,,,,,,,,,,,,,,,,,,,,,,,,,469.2054627999896,469.27477550000185,469.7225438000023,469.72255599999335,470.220258699992,470.7048036999913,470.5035701000015,470.5035877999908,471.8035186999914,471.8035186999914,473.07164309998916,space,1,1.2526633999950718,None,472.6051972999994,002,001,2023-11-12_13h46.20.064,untitled,2023.2.3,60.361796536378186,2023-11-12 13h46.29.105285 +0800,
1,condition_2/leftstar.PNG,left,,,,,,,,,,,,,1,19,44,0,473.1372429999901,,,,,,,,,,,,,,,,,,,,,,,,,,,,,,,,,,,,,,,,,,,,,,,,,,,,,,,,,,,,,,,,,,,,,,,,,,,,,,,,,,,,,,,,,,,,,,,,,,,,,,,,,,473.072058699996,473.1372429999901,473.5868274999957,473.586839399999,474.08680439999443,474.57128699999885,474.3704976000008,474.37051009999414,475.67038719999255,475.67038719999255,475.98805279999215,left,1,0.31044780000229366,None,,002,001,2023-11-12_13h46.20.064,untitled,2023.2.3,60.361796536378186,2023-11-12 13h46.29.105285 +0800,
2,condition_2/rightstar.PNG,right,,,,,,,,,,,,,1,20,45,13,476.05641169998853,,,,,,,,,,,,,,,,,,,,,,,,,,,,,,,,,,,,,,,,,,,,,,,,,,,,,,,,,,,,,,,,,,,,,,,,,,,,,,,,,,,,,,,,,,,,,,,,,,,,,,,,,,475.98850159998983,476.05641169998853,476.50355280000076,476.50356649998866,477.0037016999995,477.47073689999525,477.28790619999927,477.28791909999563,478.58673889999045,478.58673889999045,479.03768959999434,right,1,0.44643520000681747,None,,002,001,2023-11-12_13h46.20.064,untitled,2023.2.3,60.361796536378186,2023-11-12 13h46.29.105285 +0800,
2,condition_2/blank.PNG,space,,,,,,,,,,,,,1,21,46,9,479.1206324999948,,,,,,,,,,,,,,,,,,,,,,,,,,,,,,,,,,,,,,,,,,,,,,,,,,,,,,,,,,,,,,,,,,,,,,,,,,,,,,,,,,,,,,,,,,,,,,,,,,,,,,,,,,479.0380634999892,479.1206324999948,479.5539252000017,479.5539369999897,480.0376644999924,480.3551146999962,480.322791300001,480.3228073999926,481.7288390999893,481.7288390999893,483.00394219999725,space,1,1.2712092000001576,None,482.5376188999944,002,001,2023-11-12_13h46.20.064,untitled,2023.2.3,60.361796536378186,2023-11-12 13h46.29.105285 +0800,
1,condition_2/rightstar.PNG,right,,,,,,,,,,,,,1,22,47,21,483.0705862999894,,,,,,,,,,,,,,,,,,,,,,,,,,,,,,,,,,,,,,,,,,,,,,,,,,,,,,,,,,,,,,,,,,,,,,,,,,,,,,,,,,,,,,,,,,,,,,,,,,,,,,,,,,483.00430279999273,483.0705862999894,483.5042356999911,483.5042473999929,484.00383950000105,484.4707946999988,484.28783359999943,484.28784689999884,485.6381634999998,485.6381634999998,486.17118999999366,right,1,0.5315191999980016,None,,002,001,2023-11-12_13h46.20.064,untitled,2023.2.3,60.361796536378186,2023-11-12 13h46.29.105285 +0800,
1,condition_2/leftstar.PNG,left,,,,,,,,,,,,,1,23,48,16,486.24701279999863,,,,,,,,,,,,,,,,,,,,,,,,,,,,,,,,,,,,,,,,,,,,,,,,,,,,,,,,,,,,,,,,,,,,,,,,,,,,,,,,,,,,,,,,,,,,,,,,,,,,,,,,,,486.1715500999999,486.24701279999863,486.6878672000021,486.6878785000008,487.1869696999929,487.67055389999587,487.47121449999395,487.47122520000266,488.78680509999685,488.78680509999685,489.5222582999995,left,1,0.719026800012216,None,,002,001,2023-11-12_13h46.20.064,untitled,2023.2.3,60.361796536378186,2023-11-12 13h46.29.105285 +0800,
2,condition_2/leftstar.PNG,left,,,,,,,,,,,,,1,24,49,22,489.59207179999794,,,,,,,,,,,,,,,,,,,,,,,,,,,,,,,,,,,,,,,,,,,,,,,,,,,,,,,,,,,,,,,,,,,,,,,,,,,,,,,,,,,,,,,,,,,,,,,,,,,,,,,,,,489.52263989999483,489.59207179999794,490.0371102999925,490.0371237999934,490.5370311000006,491.02066979999654,490.8208786999894,490.8208891999966,492.1368473999901,492.1368473999901,492.65494839999883,left,1,0.5027445000014268,None,,002,001,2023-11-12_13h46.20.064,untitled,2023.2.3,60.361796536378186,2023-11-12 13h46.29.105285 +0800,
