stimuli,star,CorrectAns,trials_3.thisRepN,trials_3.thisTrialN,trials_3.thisN,trials_3.thisIndex,trials.thisRepN,trials.thisTrialN,trials.thisN,trials.thisIndex,trials_4.thisRepN,trials_4.thisTrialN,trials_4.thisN,trials_4.thisIndex,trials_2.thisRepN,trials_2.thisTrialN,trials_2.thisN,trials_2.thisIndex,thisRow.t,notes,routine_21.started,text_9.started,key_resp_8.started,routine_21.stopped,key_resp_8.keys,key_resp_8.rt,key_resp_8.duration,introduction.started,text_6.started,key_resp_5.started,introduction.stopped,key_resp_5.keys,key_resp_5.rt,key_resp_5.duration,routine_14.started,image_6.started,routine_14.stopped,routine_16.started,text_4.started,text_4.stopped,routine_16.stopped,routine_17.started,image_7.started,key_resp_3.started,image_7.stopped,routine_17.stopped,key_resp_3.keys,key_resp_3.rt,key_resp_3.duration,routine_20.started,text_8.started,key_resp_7.started,routine_20.stopped,key_resp_7.keys,key_resp_7.rt,key_resp_7.duration,routine_18.started,text_5.started,key_resp_4.started,routine_18.stopped,key_resp_4.keys,key_resp_4.rt,key_resp_4.duration,trial.started,image_3.started,trial.stopped,routine.started,text_3.started,text_3.stopped,routine.stopped,routine_1.started,image_2.started,key_resp.started,image_2.stopped,routine_1.stopped,key_resp.keys,key_resp.corr,key_resp.rt,key_resp.duration,routine_22.started,text_10.started,key_resp_9.started,routine_22.stopped,key_resp_9.keys,key_resp_9.rt,key_resp_9.duration,routine_19.started,text_7.started,key_resp_6.started,routine_19.stopped,key_resp_6.keys,key_resp_6.rt,key_resp_6.duration,routine_23.started,image_8.started,routine_23.stopped,routine_24.started,text_11.started,text_11.stopped,routine_24.stopped,routine_25.started,image_9.started,key_resp_10.started,image_9.stopped,routine_25.stopped,key_resp_10.keys,key_resp_10.rt,key_resp_10.duration,routine_26.started,text_12.started,key_resp_11.started,routine_26.stopped,key_resp_11.keys,key_resp_11.rt,key_resp_11.duration,routine_27.started,text_13.started,key_resp_12.started,routine_27.stopped,key_resp_12.keys,key_resp_12.rt,key_resp_12.duration,routine_10.started,image_4.started,routine_10.stopped,routine_11.started,text.started,text.stopped,routine_11.stopped,routine_12.started,image_5.started,key_resp_2.started,image_5.stopped,routine_12.stopped,key_resp_2.keys,key_resp_2.corr,key_resp_2.rt,key_resp_2.duration,participant,session,date,expName,psychopyVersion,frameRate,expStart,
,,,,,,,,,,,,,,,,,,,,,0.016138299999965966,0.025619999999889842,0.025619999999889842,14.705570999999964,space,14.67772489999993,None,,,,,,,,,,,,,,,,,,,,,,,,,,,,,,,,,,,,,,,,,,,,,,,,,,,,,,,,,,,,,,,,,,,,,,,,,,,,,,,,,,,,,,,,,,,,,,,,,,,,,,,,,,,,,,,,003,001,2023-11-11_13h41.04.619,untitled,2023.2.3,None,2023-11-11 13h41.21.263868 +0800,
,,,,,,,,,,,,,,,,,,,,,,,,,,,,14.705593500000077,14.711577799999986,14.711577799999986,37.315065600000025,space,22.598118500000055,None,,,,,,,,,,,,,,,,,,,,,,,,,,,,,,,,,,,,,,,,,,,,,,,,,,,,,,,,,,,,,,,,,,,,,,,,,,,,,,,,,,,,,,,,,,,,,,,,,,,,,,,,,003,001,2023-11-11_13h41.04.619,untitled,2023.2.3,None,2023-11-11 13h41.21.263868 +0800,
1,test/blank.PNG,space,0,0,0,2,,,,,,,,,,,,,37.44872899999996,,,,,,,,,,,,,,,,37.325204299999996,37.44872899999996,37.81789690000005,37.81790920000003,38.30180700000005,38.63830400000006,38.58473869999989,38.58474890000002,39.911868700000014,39.911868700000014,40.701188900000034,42.744904500000075,space,2.829741100000092,None,,,,,,,,,,,,,,,,,,,,,,,,,,,,,,,,,,,,,,,,,,,,,,,,,,,,,,,,,,,,,,,,,,,,,,,,,,,,,,,,,,,,,,,,,,003,001,2023-11-11_13h41.04.619,untitled,2023.2.3,None,2023-11-11 13h41.21.263868 +0800,
9,test/rightstar.PNG,right,0,1,1,3,,,,,,,,,,,,,42.82492750000006,,,,,,,,,,,,,,,,42.745361699999876,42.82492750000006,43.24783000000002,43.24783849999994,43.73113220000005,44.19566970000005,44.014613600000075,44.01462330000004,45.40897319999999,45.40897319999999,46.2013515000001,46.81850600000007,right,1.4075066000000334,None,,,,,,,,,,,,,,,,,,,,,,,,,,,,,,,,,,,,,,,,,,,,,,,,,,,,,,,,,,,,,,,,,,,,,,,,,,,,,,,,,,,,,,,,,,003,001,2023-11-11_13h41.04.619,untitled,2023.2.3,None,2023-11-11 13h41.21.263868 +0800,
8,test/rightstar.PNG,right,0,2,2,1,,,,,,,,,,,,,46.901522500000056,,,,,,,,,,,,,,,,46.818842399999994,46.901522500000056,47.32133169999997,47.321340799999916,47.807894099999885,48.27851469999996,48.091306999999915,48.091318999999885,49.41775740000003,49.41775740000003,,49.89856729999997,right,0.4801526000001104,None,,,,,,,,,,,,,,,,,,,,,,,,,,,,,,,,,,,,,,,,,,,,,,,,,,,,,,,,,,,,,,,,,,,,,,,,,,,,,,,,,,,,,,,,,,003,001,2023-11-11_13h41.04.619,untitled,2023.2.3,None,2023-11-11 13h41.21.263868 +0800,
1,test/leftstar.PNG,space,0,3,3,0,,,,,,,,,,,,,49.984782100000075,,,,,,,,,,,,,,,,49.8988781999999,49.984782100000075,50.40102610000008,50.401035500000035,50.88468979999993,51.355432199999996,51.16819140000007,51.168201799999906,52.49747329999991,52.49747329999991,53.287685999999894,56.38837349999994,space,3.8886144999999033,None,,,,,,,,,,,,,,,,,,,,,,,,,,,,,,,,,,,,,,,,,,,,,,,,,,,,,,,,,,,,,,,,,,,,,,,,,,,,,,,,,,,,,,,,,,003,001,2023-11-11_13h41.04.619,untitled,2023.2.3,None,2023-11-11 13h41.21.263868 +0800,
2,test/leftstar.PNG,space,0,4,4,4,,,,,,,,,,,,,56.46831109999994,,,,,,,,,,,,,,,,56.38870339999994,56.46831109999994,56.89108319999991,56.891093299999966,57.377659400000084,57.831977999999935,57.66484569999989,57.66485680000005,58.982026299999916,58.982026299999916,59.76762439999993,60.36836169999992,space,1.3831557000000885,None,,,,,,,,,,,,,,,,,,,,,,,,,,,,,,,,,,,,,,,,,,,,,,,,,,,,,,,,,,,,,,,,,,,,,,,,,,,,,,,,,,,,,,,,,,003,001,2023-11-11_13h41.04.619,untitled,2023.2.3,None,2023-11-11 13h41.21.263868 +0800,
8,test/leftstar.PNG,left,0,5,5,5,,,,,,,,,,,,,60.44189929999993,,,,,,,,,,,,,,,,60.36870320000003,60.44189929999993,60.871126400000094,60.871135000000095,61.35435940000002,61.80245940000009,61.63792820000003,61.63794030000008,62.968820699999924,62.968820699999924,63.757634499999995,63.96162030000005,left,0.991140600000108,None,,,,,,,,,,,,,,,,,,,,,,,,,,,,,,,,,,,,,,,,,,,,,,,,,,,,,,,,,,,,,,,,,,,,,,,,,,,,,,,,,,,,,,,,,,003,001,2023-11-11_13h41.04.619,untitled,2023.2.3,None,2023-11-11 13h41.21.263868 +0800,
,,,,,,,,,,,,,,,,,,,,,,,,,,,,,,,,,,,,,,,,,,,,,,,,,,63.961863700000094,63.96612899999991,63.96612899999991,66.00813530000005,space,2.040962699999909,None,,,,,,,,,,,,,,,,,,,,,,,,,,,,,,,,,,,,,,,,,,,,,,,,,,,,,,,,,,,,,,,,,,,,,,,,,,,,,,,,,,,003,001,2023-11-11_13h41.04.619,untitled,2023.2.3,None,2023-11-11 13h41.21.263868 +0800,
,,,,,,,,,,,,,,,,,,,,,,,,,,,,,,,,,,,,,,,,,,,,,,,,,,,,,,,,,66.00815779999994,66.01433659999998,66.01433659999998,68.90521820000004,space,2.889869200000021,None,,,,,,,,,,,,,,,,,,,,,,,,,,,,,,,,,,,,,,,,,,,,,,,,,,,,,,,,,,,,,,,,,,,,,,,,,,,,003,001,2023-11-11_13h41.04.619,untitled,2023.2.3,None,2023-11-11 13h41.21.263868 +0800,
2,condition_1/rightstar.PNG,space,,,,,0,0,0,5,,,,,,,,,68.9911012,,,,,,,,,,,,,,,,,,,,,,,,,,,,,,,,,,,,,,,,,,,,,68.91039950000004,68.9911012,69.40787099999989,69.40788159999988,69.89113619999989,70.35176039999988,70.17485420000003,70.17486669999994,71.51139949999992,71.51139949999992,72.30111659999989,72.63493790000007,space,1,1.1213474999999562,None,,,,,,,,,,,,,,,,,,,,,,,,,,,,,,,,,,,,,,,,,,,,,,,,,,,,,,,,,,,,003,001,2023-11-11_13h41.04.619,untitled,2023.2.3,None,2023-11-11 13h41.21.263868 +0800,
2,condition_1/rightstar.PNG,space,,,,,0,1,1,21,,,,,,,,,72.71872159999998,,,,,,,,,,,,,,,,,,,,,,,,,,,,,,,,,,,,,,,,,,,,,72.63546120000001,72.71872159999998,73.14167279999992,73.14168410000002,73.62411679999991,74.08891689999996,73.91156699999988,73.91157900000007,75.2303773000001,75.2303773000001,76.01763860000005,76.58845479999991,space,1,1.356681799999933,None,,,,,,,,,,,,,,,,,,,,,,,,,,,,,,,,,,,,,,,,,,,,,,,,,,,,,,,,,,,,003,001,2023-11-11_13h41.04.619,untitled,2023.2.3,None,2023-11-11 13h41.21.263868 +0800,
2,condition_1/leftstar.PNG,space,,,,,0,2,2,17,,,,,,,,,76.67211980000002,,,,,,,,,,,,,,,,,,,,,,,,,,,,,,,,,,,,,,,,,,,,,76.5888609000001,76.67211980000002,77.0910401000001,77.09105120000004,77.5778706000001,78.0422117999999,77.86156959999994,77.86157950000006,79.18699739999988,79.18699739999988,79.97785569999996,80.555161,space,1,1.3648498000000018,None,,,,,,,,,,,,,,,,,,,,,,,,,,,,,,,,,,,,,,,,,,,,,,,,,,,,,,,,,,,,003,001,2023-11-11_13h41.04.619,untitled,2023.2.3,None,2023-11-11 13h41.21.263868 +0800,
2,condition_1/rightstar.PNG,space,,,,,0,3,3,13,,,,,,,,,80.634679,,,,,,,,,,,,,,,,,,,,,,,,,,,,,,,,,,,,,,,,,,,,,80.55554800000004,80.634679,81.06232539999996,81.06239060000007,81.54138779999994,82.00205529999994,81.8246059999999,81.82461680000006,83.15188829999988,83.15188829999988,83.94115009999996,84.6450863,space,1,1.4924223999998958,None,,,,,,,,,,,,,,,,,,,,,,,,,,,,,,,,,,,,,,,,,,,,,,,,,,,,,,,,,,,,003,001,2023-11-11_13h41.04.619,untitled,2023.2.3,None,2023-11-11 13h41.21.263868 +0800,
8,condition_1/leftstar.PNG,left,,,,,0,4,4,18,,,,,,,,,84.72519740000007,,,,,,,,,,,,,,,,,,,,,,,,,,,,,,,,,,,,,,,,,,,,,84.64547549999997,84.72519740000007,85.14678329999992,85.14685069999996,85.63429730000007,86.1188967999999,85.91808500000002,85.91809760000001,87.24282560000006,87.24282560000006,88.03108440000005,88.66814670000008,left,1,1.4234268000000156,None,,,,,,,,,,,,,,,,,,,,,,,,,,,,,,,,,,,,,,,,,,,,,,,,,,,,,,,,,,,,003,001,2023-11-11_13h41.04.619,untitled,2023.2.3,None,2023-11-11 13h41.21.263868 +0800,
8,condition_1/blank.PNG,space,,,,,0,5,5,10,,,,,,,,,88.74200599999995,,,,,,,,,,,,,,,,,,,,,,,,,,,,,,,,,,,,,,,,,,,,,88.66851419999989,88.74200599999995,89.17111309999996,89.17112399999996,89.65445750000003,89.9760945999999,89.93782929999998,89.9378385,91.35806920000005,91.35806920000005,92.14438459999997,93.79490099999998,space,1,2.4345765999999003,None,,,,,,,,,,,,,,,,,,,,,,,,,,,,,,,,,,,,,,,,,,,,,,,,,,,,,,,,,,,,003,001,2023-11-11_13h41.04.619,untitled,2023.2.3,None,2023-11-11 13h41.21.263868 +0800,
2,condition_1/blank.PNG,space,,,,,0,6,6,9,,,,,,,,,93.8679901999999,,,,,,,,,,,,,,,,,,,,,,,,,,,,,,,,,,,,,,,,,,,,,93.79527499999995,93.8679901999999,94.29783210000005,94.29784180000001,94.78124550000007,95.10029710000003,95.06454389999999,95.06455310000001,96.38438139999994,96.38438139999994,97.17117209999992,97.31838459999994,space,1,0.9333126999999877,None,,,,,,,,,,,,,,,,,,,,,,,,,,,,,,,,,,,,,,,,,,,,,,,,,,,,,,,,,,,,003,001,2023-11-11_13h41.04.619,untitled,2023.2.3,None,2023-11-11 13h41.21.263868 +0800,
1,condition_1/leftstar.PNG,space,,,,,0,7,7,16,,,,,,,,,97.39175,,,,,,,,,,,,,,,,,,,,,,,,,,,,,,,,,,,,,,,,,,,,,97.31883429999993,97.39175,97.82120880000002,97.82121849999999,98.30749839999999,98.76136199999996,98.59115300000008,98.59116319999998,99.96796760000007,99.96796760000007,100.75781890000007,101.5880494999999,space,1,1.6167824999999993,None,,,,,,,,,,,,,,,,,,,,,,,,,,,,,,,,,,,,,,,,,,,,,,,,,,,,,,,,,,,,003,001,2023-11-11_13h41.04.619,untitled,2023.2.3,None,2023-11-11 13h41.21.263868 +0800,
8,condition_1/rightstar.PNG,right,,,,,0,8,8,14,,,,,,,,,101.6618352999999,,,,,,,,,,,,,,,,,,,,,,,,,,,,,,,,,,,,,,,,,,,,,101.58842639999989,101.6618352999999,102.09109080000007,102.0911016,102.57429980000006,103.03249830000004,102.85776959999998,102.85777989999997,104.18160869999997,104.18160869999997,104.96756200000004,105.26174590000005,right,1,1.0793198000001212,None,,,,,,,,,,,,,,,,,,,,,,,,,,,,,,,,,,,,,,,,,,,,,,,,,,,,,,,,,,,,003,001,2023-11-11_13h41.04.619,untitled,2023.2.3,None,2023-11-11 13h41.21.263868 +0800,
8,condition_1/rightstar.PNG,right,,,,,0,9,9,23,,,,,,,,,105.33564879999994,,,,,,,,,,,,,,,,,,,,,,,,,,,,,,,,,,,,,,,,,,,,,105.26211209999997,105.33564879999994,105.76796599999989,105.76797669999996,106.25109449999991,106.70895449999989,106.53497719999996,106.53498910000008,107.855681,107.855681,108.64087059999997,109.13805469999988,right,1,1.2790026999998645,None,,,,,,,,,,,,,,,,,,,,,,,,,,,,,,,,,,,,,,,,,,,,,,,,,,,,,,,,,,,,003,001,2023-11-11_13h41.04.619,untitled,2023.2.3,None,2023-11-11 13h41.21.263868 +0800,
1,condition_1/rightstar.PNG,space,,,,,0,10,10,4,,,,,,,,,109.21214359999999,,,,,,,,,,,,,,,,,,,,,,,,,,,,,,,,,,,,,,,,,,,,,109.13842099999988,109.21214359999999,109.64108480000004,109.64109499999995,110.12403569999992,110.58545449999997,110.40799549999997,110.40800719999993,111.73418939999988,111.73418939999988,112.52094349999993,112.8719036,space,1,1.1349547999998322,None,,,,,,,,,,,,,,,,,,,,,,,,,,,,,,,,,,,,,,,,,,,,,,,,,,,,,,,,,,,,003,001,2023-11-11_13h41.04.619,untitled,2023.2.3,None,2023-11-11 13h41.21.263868 +0800,
1,condition_1/blank.PNG,space,,,,,0,11,11,8,,,,,,,,,112.94507789999989,,,,,,,,,,,,,,,,,,,,,,,,,,,,,,,,,,,,,,,,,,,,,112.87237540000001,112.94507789999989,113.3744142999999,113.37442689999989,113.86079180000002,114.18388980000009,114.14470649999998,114.14471639999988,115.54861019999998,115.54861019999998,116.33757790000004,116.3882888999999,space,1,0.8374802999999247,None,,,,,,,,,,,,,,,,,,,,,,,,,,,,,,,,,,,,,,,,,,,,,,,,,,,,,,,,,,,,003,001,2023-11-11_13h41.04.619,untitled,2023.2.3,None,2023-11-11 13h41.21.263868 +0800,
9,condition_1/blank.PNG,space,,,,,0,12,12,11,,,,,,,,,116.46496649999995,,,,,,,,,,,,,,,,,,,,,,,,,,,,,,,,,,,,,,,,,,,,,116.38865239999996,116.46496649999995,116.89094079999995,116.89095100000009,117.38099110000007,117.70159629999989,117.6642405,117.66425009999989,118.97716549999996,118.97716549999996,119.76431980000007,121.20810770000003,space,1,2.2288590999999087,None,,,,,,,,,,,,,,,,,,,,,,,,,,,,,,,,,,,,,,,,,,,,,,,,,,,,,,,,,,,,003,001,2023-11-11_13h41.04.619,untitled,2023.2.3,None,2023-11-11 13h41.21.263868 +0800,
8,condition_1/rightstar.PNG,right,,,,,0,13,13,6,,,,,,,,,121.28224120000004,,,,,,,,,,,,,,,,,,,,,,,,,,,,,,,,,,,,,,,,,,,,,121.208484,121.28224120000004,121.71098359999996,121.71099400000003,122.1940755999999,122.65861919999998,122.4778166000001,122.47782759999996,123.84468300000003,123.84468300000003,124.6341996000001,125.3083357999999,right,1,1.4626534999999876,None,,,,,,,,,,,,,,,,,,,,,,,,,,,,,,,,,,,,,,,,,,,,,,,,,,,,,,,,,,,,003,001,2023-11-11_13h41.04.619,untitled,2023.2.3,None,2023-11-11 13h41.21.263868 +0800,
1,condition_1/rightstar.PNG,space,,,,,0,14,14,12,,,,,,,,,125.38227729999994,,,,,,,,,,,,,,,,,,,,,,,,,,,,,,,,,,,,,,,,,,,,,125.30872879999993,125.38227729999994,125.8115421,125.811553,126.29432819999988,126.7555703999999,126.57784930000003,126.57786009999995,127.9036192000001,127.9036192000001,128.6909080999999,130.2346989,space,1,2.3280776999999944,None,,,,,,,,,,,,,,,,,,,,,,,,,,,,,,,,,,,,,,,,,,,,,,,,,,,,,,,,,,,,003,001,2023-11-11_13h41.04.619,untitled,2023.2.3,None,2023-11-11 13h41.21.263868 +0800,
8,condition_1/blank.PNG,space,,,,,0,15,15,24,,,,,,,,,130.3085900000001,,,,,,,,,,,,,,,,,,,,,,,,,,,,,,,,,,,,,,,,,,,,,130.23509710000008,130.3085900000001,130.73838449999994,130.7383958999999,131.22062030000006,131.54096189999996,131.50473349999993,131.50474359999998,132.92548540000007,132.92548540000007,133.71430889999988,134.2316346,space,1,1.3051075000000765,None,,,,,,,,,,,,,,,,,,,,,,,,,,,,,,,,,,,,,,,,,,,,,,,,,,,,,,,,,,,,003,001,2023-11-11_13h41.04.619,untitled,2023.2.3,None,2023-11-11 13h41.21.263868 +0800,
9,condition_1/rightstar.PNG,right,,,,,0,16,16,7,,,,,,,,,134.30526439999994,,,,,,,,,,,,,,,,,,,,,,,,,,,,,,,,,,,,,,,,,,,,,134.23201829999994,134.30526439999994,134.73451840000007,134.7345292,135.21765520000008,135.6751236,135.5050490000001,135.50506100000007,136.87811110000007,136.87811110000007,137.66462039999988,138.0479456999999,right,1,1.1674745000000257,None,,,,,,,,,,,,,,,,,,,,,,,,,,,,,,,,,,,,,,,,,,,,,,,,,,,,,,,,,,,,003,001,2023-11-11_13h41.04.619,untitled,2023.2.3,None,2023-11-11 13h41.21.263868 +0800,
9,condition_1/leftstar.PNG,left,,,,,0,17,17,20,,,,,,,,,138.12172110000006,,,,,,,,,,,,,,,,,,,,,,,,,,,,,,,,,,,,,,,,,,,,,138.04837199999997,138.12172110000006,138.5509727000001,138.55098199999998,139.0344477000001,139.4820924999999,139.31805970000005,139.31807049999998,140.6421711999999,140.6421711999999,141.43083899999988,141.8949388000001,left,1,1.2518907999999556,None,,,,,,,,,,,,,,,,,,,,,,,,,,,,,,,,,,,,,,,,,,,,,,,,,,,,,,,,,,,,003,001,2023-11-11_13h41.04.619,untitled,2023.2.3,None,2023-11-11 13h41.21.263868 +0800,
1,condition_1/leftstar.PNG,space,,,,,0,18,18,0,,,,,,,,,141.9717677000001,,,,,,,,,,,,,,,,,,,,,,,,,,,,,,,,,,,,,,,,,,,,,141.89532480000003,141.9717677000001,142.39752139999996,142.39753180000002,142.88074310000002,143.33545200000003,143.16451359999996,143.16452490000006,144.49202289999994,144.49202289999994,145.2811577,145.54147829999988,space,1,1.0483942000000752,None,,,,,,,,,,,,,,,,,,,,,,,,,,,,,,,,,,,,,,,,,,,,,,,,,,,,,,,,,,,,003,001,2023-11-11_13h41.04.619,untitled,2023.2.3,None,2023-11-11 13h41.21.263868 +0800,
1,condition_1/leftstar.PNG,space,,,,,0,19,19,22,,,,,,,,,145.61862539999993,,,,,,,,,,,,,,,,,,,,,,,,,,,,,,,,,,,,,,,,,,,,,145.54184540000006,145.61862539999993,146.04426680000006,146.0442762,146.527603,146.97900129999994,146.8113335999999,146.81134389999988,148.13540149999994,148.13540149999994,148.9243073,149.32803310000008,space,1,1.1916327000001274,None,,,,,,,,,,,,,,,,,,,,,,,,,,,,,,,,,,,,,,,,,,,,,,,,,,,,,,,,,,,,003,001,2023-11-11_13h41.04.619,untitled,2023.2.3,None,2023-11-11 13h41.21.263868 +0800,
2,condition_1/leftstar.PNG,space,,,,,0,20,20,1,,,,,,,,,149.40127789999997,,,,,,,,,,,,,,,,,,,,,,,,,,,,,,,,,,,,,,,,,,,,,149.32841110000004,149.40127789999997,149.83449990000008,149.83451209999998,150.31453729999998,150.76563099999998,150.59815350000008,150.5981632999999,151.92173049999997,151.92173049999997,152.71158250000008,153.0747492999999,space,1,1.150315300000102,None,,,,,,,,,,,,,,,,,,,,,,,,,,,,,,,,,,,,,,,,,,,,,,,,,,,,,,,,,,,,003,001,2023-11-11_13h41.04.619,untitled,2023.2.3,None,2023-11-11 13h41.21.263868 +0800,
9,condition_1/leftstar.PNG,left,,,,,0,21,21,3,,,,,,,,,153.15452400000004,,,,,,,,,,,,,,,,,,,,,,,,,,,,,,,,,,,,,,,,,,,,,153.07512500000007,153.15452400000004,153.577399,153.5774093,154.06092119999994,154.51500800000008,154.3444449000001,154.34445430000005,155.66871250000008,155.66871250000008,156.46088310000005,156.52123779999988,left,1,0.8508288000000448,None,,,,,,,,,,,,,,,,,,,,,,,,,,,,,,,,,,,,,,,,,,,,,,,,,,,,,,,,,,,,003,001,2023-11-11_13h41.04.619,untitled,2023.2.3,None,2023-11-11 13h41.21.263868 +0800,
9,condition_1/rightstar.PNG,right,,,,,0,22,22,15,,,,,,,,,156.60202260000005,,,,,,,,,,,,,,,,,,,,,,,,,,,,,,,,,,,,,,,,,,,,,156.52161640000008,156.60202260000005,157.02427839999996,157.0242877999999,157.50775019999992,157.96165889999997,157.7910918,157.79110459999993,159.1160872999999,159.1160872999999,159.90437100000008,160.06472759999997,right,1,0.94519379999997,None,,,,,,,,,,,,,,,,,,,,,,,,,,,,,,,,,,,,,,,,,,,,,,,,,,,,,,,,,,,,003,001,2023-11-11_13h41.04.619,untitled,2023.2.3,None,2023-11-11 13h41.21.263868 +0800,
8,condition_1/leftstar.PNG,left,,,,,0,23,23,2,,,,,,,,,160.1378769999999,,,,,,,,,,,,,,,,,,,,,,,,,,,,,,,,,,,,,,,,,,,,,160.06510000000003,160.1378769999999,160.56800019999991,160.5680109,161.05084839999995,161.49824080000008,161.33461110000007,161.33462039999995,162.65851049999992,162.65851049999992,,163.30844000000002,left,1,0.6483719999998812,None,,,,,,,,,,,,,,,,,,,,,,,,,,,,,,,,,,,,,,,,,,,,,,,,,,,,,,,,,,,,003,001,2023-11-11_13h41.04.619,untitled,2023.2.3,None,2023-11-11 13h41.21.263868 +0800,
9,condition_1/leftstar.PNG,left,,,,,0,24,24,19,,,,,,,,,163.3850556,,,,,,,,,,,,,,,,,,,,,,,,,,,,,,,,,,,,,,,,,,,,,163.3087963999999,163.3850556,163.8112572,163.81126990000007,164.2976404000001,164.7585529999999,164.58105369999998,164.58106300000009,165.90574149999998,165.90574149999998,166.69778259999998,166.79151249999995,left,1,0.8845432000000528,None,,,,,,,,,,,,,,,,,,,,,,,,,,,,,,,,,,,,,,,,,,,,,,,,,,,,,,,,,,,,003,001,2023-11-11_13h41.04.619,untitled,2023.2.3,None,2023-11-11 13h41.21.263868 +0800,
1,condition_1/rightstar.PNG,space,,,,,1,0,25,4,,,,,,,,,166.86817930000007,,,,,,,,,,,,,,,,,,,,,,,,,,,,,,,,,,,,,,,,,,,,,166.79197240000008,166.86817930000007,167.29445009999995,167.29446039999993,167.77739109999993,168.23209930000007,168.06159920000005,168.06160920000002,169.385227,169.385227,,170.0385507000001,right,0,0.6499366000000464,None,,,,,,,,,,,,,,,,,,,,,,,,,,,,,,,,,,,,,,,,,,,,,,,,,,,,,,,,,,,,003,001,2023-11-11_13h41.04.619,untitled,2023.2.3,None,2023-11-11 13h41.21.263868 +0800,
9,condition_1/rightstar.PNG,right,,,,,1,1,26,7,,,,,,,,,170.10871399999996,,,,,,,,,,,,,,,,,,,,,,,,,,,,,,,,,,,,,,,,,,,,,170.03893330000005,170.10871399999996,170.5421053,170.5421148999999,171.02761529999998,171.4753393000001,171.3111581999999,171.31116930000007,172.6350817,172.6350817,,173.32448249999993,right,1,0.6881533000000672,None,,,,,,,,,,,,,,,,,,,,,,,,,,,,,,,,,,,,,,,,,,,,,,,,,,,,,,,,,,,,003,001,2023-11-11_13h41.04.619,untitled,2023.2.3,None,2023-11-11 13h41.21.263868 +0800,
1,condition_1/leftstar.PNG,space,,,,,1,2,27,16,,,,,,,,,173.3989391,,,,,,,,,,,,,,,,,,,,,,,,,,,,,,,,,,,,,,,,,,,,,173.32485810000003,173.3989391,173.82742949999988,173.82744019999996,174.3109457999999,174.76171309999995,174.59475780000002,174.59477070000003,175.91855650000002,175.91855650000002,176.7040118,176.95489640000005,space,1,1.03555799999981,None,,,,,,,,,,,,,,,,,,,,,,,,,,,,,,,,,,,,,,,,,,,,,,,,,,,,,,,,,,,,003,001,2023-11-11_13h41.04.619,untitled,2023.2.3,None,2023-11-11 13h41.21.263868 +0800,
8,condition_1/leftstar.PNG,left,,,,,1,3,28,18,,,,,,,,,177.02885680000009,,,,,,,,,,,,,,,,,,,,,,,,,,,,,,,,,,,,,,,,,,,,,176.95532709999998,177.02885680000009,177.4574909999999,177.45750049999992,177.94074299999988,178.39161009999998,178.2245316000001,178.2245418,179.54876439999998,179.54876439999998,180.33762339999998,180.3416333,left,1,0.7905203999998776,None,,,,,,,,,,,,,,,,,,,,,,,,,,,,,,,,,,,,,,,,,,,,,,,,,,,,,,,,,,,,003,001,2023-11-11_13h41.04.619,untitled,2023.2.3,None,2023-11-11 13h41.21.263868 +0800,
8,condition_1/rightstar.PNG,right,,,,,1,4,29,23,,,,,,,,,180.41539829999988,,,,,,,,,,,,,,,,,,,,,,,,,,,,,,,,,,,,,,,,,,,,,180.34200020000003,180.41539829999988,180.8444305999999,180.8444414999999,181.3309314999999,181.81129349999992,181.61451140000008,181.61452129999998,182.9397939999999,182.9397939999999,,183.5343941000001,right,1,0.592428899999959,None,,,,,,,,,,,,,,,,,,,,,,,,,,,,,,,,,,,,,,,,,,,,,,,,,,,,,,,,,,,,003,001,2023-11-11_13h41.04.619,untitled,2023.2.3,None,2023-11-11 13h41.21.263868 +0800,
2,condition_1/rightstar.PNG,space,,,,,1,5,30,21,,,,,,,,,183.6039378999999,,,,,,,,,,,,,,,,,,,,,,,,,,,,,,,,,,,,,,,,,,,,,183.53476509999996,183.6039378999999,184.03757640000003,184.03758549999998,184.52079780000008,184.9728737999999,184.80441889999997,184.80443190000005,186.1293212999999,186.1293212999999,,186.79807269999992,space,1,0.6669065999999475,None,,,,,,,,,,,,,,,,,,,,,,,,,,,,,,,,,,,,,,,,,,,,,,,,,,,,,,,,,,,,003,001,2023-11-11_13h41.04.619,untitled,2023.2.3,None,2023-11-11 13h41.21.263868 +0800,
8,condition_1/blank.PNG,space,,,,,1,6,31,24,,,,,,,,,186.87699199999997,,,,,,,,,,,,,,,,,,,,,,,,,,,,,,,,,,,,,,,,,,,,,186.79842759999997,186.87699199999997,187.30320419999998,187.30327119999993,187.7842217,188.14821890000007,188.07915479999997,188.07923290000008,189.48790170000007,189.48790170000007,190.2778092000001,190.4482496999999,space,1,0.9582041000001027,None,,,,,,,,,,,,,,,,,,,,,,,,,,,,,,,,,,,,,,,,,,,,,,,,,,,,,,,,,,,,003,001,2023-11-11_13h41.04.619,untitled,2023.2.3,None,2023-11-11 13h41.21.263868 +0800,
1,condition_1/blank.PNG,space,,,,,1,7,32,8,,,,,,,,,190.5218276999999,,,,,,,,,,,,,,,,,,,,,,,,,,,,,,,,,,,,,,,,,,,,,190.4486632999999,190.5218276999999,190.95135359999995,190.9513634,191.4342211999999,191.7881158,191.7213432000001,191.72135460000004,193.0402348,193.0402348,193.8275446,193.93465539999988,space,1,0.8917109999999866,None,,,,,,,,,,,,,,,,,,,,,,,,,,,,,,,,,,,,,,,,,,,,,,,,,,,,,,,,,,,,003,001,2023-11-11_13h41.04.619,untitled,2023.2.3,None,2023-11-11 13h41.21.263868 +0800,
8,condition_1/rightstar.PNG,right,,,,,1,8,33,14,,,,,,,,,194.0114662000001,,,,,,,,,,,,,,,,,,,,,,,,,,,,,,,,,,,,,,,,,,,,,193.9350512000001,194.0114662000001,194.4377875,194.43779879999988,194.9208466,195.36808849999989,195.20446889999994,195.204479,196.5786971,196.5786971,197.36745419999988,197.46125940000002,right,1,0.8798452000000907,None,,,,,,,,,,,,,,,,,,,,,,,,,,,,,,,,,,,,,,,,,,,,,,,,,,,,,,,,,,,,003,001,2023-11-11_13h41.04.619,untitled,2023.2.3,None,2023-11-11 13h41.21.263868 +0800,
9,condition_1/leftstar.PNG,left,,,,,1,9,34,20,,,,,,,,,197.5316226,,,,,,,,,,,,,,,,,,,,,,,,,,,,,,,,,,,,,,,,,,,,,197.46163769999998,197.5316226,197.96768509999993,197.96769489999997,198.4475958999999,198.90482109999994,198.73111990000007,198.73113239999998,200.0559249999999,200.0559249999999,200.8444176999999,201.03156319999994,left,1,0.9749108000000888,None,,,,,,,,,,,,,,,,,,,,,,,,,,,,,,,,,,,,,,,,,,,,,,,,,,,,,,,,,,,,003,001,2023-11-11_13h41.04.619,untitled,2023.2.3,None,2023-11-11 13h41.21.263868 +0800,
9,condition_1/leftstar.PNG,left,,,,,1,10,35,19,,,,,,,,,201.10203249999995,,,,,,,,,,,,,,,,,,,,,,,,,,,,,,,,,,,,,,,,,,,,,201.0319508,201.10203249999995,201.53425130000005,201.5342619999999,202.02431649999994,202.48164100000008,202.31138669999996,202.31139910000002,203.62834369999996,203.62834369999996,,204.15787580000006,left,1,0.5266311000000314,None,,,,,,,,,,,,,,,,,,,,,,,,,,,,,,,,,,,,,,,,,,,,,,,,,,,,,,,,,,,,003,001,2023-11-11_13h41.04.619,untitled,2023.2.3,None,2023-11-11 13h41.21.263868 +0800,
8,condition_1/rightstar.PNG,right,,,,,1,11,36,6,,,,,,,,,204.22952779999991,,,,,,,,,,,,,,,,,,,,,,,,,,,,,,,,,,,,,,,,,,,,,204.15823879999994,204.22952779999991,204.66079560000003,204.66080549999992,205.14388860000008,205.59482030000004,205.4278721999999,205.4278816000001,206.75415780000003,206.75415780000003,207.54486169999996,207.6580285,right,1,0.9010918999999831,None,,,,,,,,,,,,,,,,,,,,,,,,,,,,,,,,,,,,,,,,,,,,,,,,,,,,,,,,,,,,003,001,2023-11-11_13h41.04.619,untitled,2023.2.3,None,2023-11-11 13h41.21.263868 +0800,
9,condition_1/rightstar.PNG,right,,,,,1,12,37,15,,,,,,,,,207.7281782,,,,,,,,,,,,,,,,,,,,,,,,,,,,,,,,,,,,,,,,,,,,,207.65840509999998,207.7281782,208.1608791000001,208.16088910000008,208.64419700000008,209.09149810000008,208.92811789999996,208.92812830000003,210.25240770000005,210.25240770000005,211.04081330000008,211.38490189999993,right,1,1.1289864999998827,None,,,,,,,,,,,,,,,,,,,,,,,,,,,,,,,,,,,,,,,,,,,,,,,,,,,,,,,,,,,,003,001,2023-11-11_13h41.04.619,untitled,2023.2.3,None,2023-11-11 13h41.21.263868 +0800,
1,condition_1/leftstar.PNG,space,,,,,1,13,38,0,,,,,,,,,211.45467869999993,,,,,,,,,,,,,,,,,,,,,,,,,,,,,,,,,,,,,,,,,,,,,211.3852789,211.45467869999993,211.88763010000002,211.88763949999998,212.37448440000003,212.82152930000007,212.6579331999999,212.65794299999993,213.97942039999998,213.97942039999998,214.7672144999999,214.99841349999997,space,1,1.0163601000001563,None,,,,,,,,,,,,,,,,,,,,,,,,,,,,,,,,,,,,,,,,,,,,,,,,,,,,,,,,,,,,003,001,2023-11-11_13h41.04.619,untitled,2023.2.3,None,2023-11-11 13h41.21.263868 +0800,
9,condition_1/blank.PNG,space,,,,,1,14,39,11,,,,,,,,,215.0749541,,,,,,,,,,,,,,,,,,,,,,,,,,,,,,,,,,,,,,,,,,,,,214.9988246999999,215.0749541,215.50106039999991,215.5010717,215.98768270000005,216.30739629999994,216.2714367000001,216.27144829999997,217.67019419999997,217.67019419999997,218.4574536,218.94133149999993,space,1,1.2684696999999687,None,,,,,,,,,,,,,,,,,,,,,,,,,,,,,,,,,,,,,,,,,,,,,,,,,,,,,,,,,,,,003,001,2023-11-11_13h41.04.619,untitled,2023.2.3,None,2023-11-11 13h41.21.263868 +0800,
2,condition_1/leftstar.PNG,space,,,,,1,15,40,1,,,,,,,,,219.01164919999997,,,,,,,,,,,,,,,,,,,,,,,,,,,,,,,,,,,,,,,,,,,,,218.94175999999993,219.01164919999997,219.44454999999994,219.44456420000006,219.92745680000007,220.37112890000003,220.21115379999992,220.21116359999996,221.58421989999988,221.58421989999988,222.37415020000003,222.9649750000001,space,1,1.3789150000000063,None,,,,,,,,,,,,,,,,,,,,,,,,,,,,,,,,,,,,,,,,,,,,,,,,,,,,,,,,,,,,003,001,2023-11-11_13h41.04.619,untitled,2023.2.3,None,2023-11-11 13h41.21.263868 +0800,
2,condition_1/rightstar.PNG,space,,,,,1,16,41,5,,,,,,,,,223.04114559999994,,,,,,,,,,,,,,,,,,,,,,,,,,,,,,,,,,,,,,,,,,,,,222.9653424999999,223.04114559999994,223.46754570000007,223.46755529999996,223.95412779999992,224.40468639999995,224.23783079999998,224.2378397,225.56272779999995,225.56272779999995,226.3508549999999,226.5760335,space,1,1.0103010999998787,None,,,,,,,,,,,,,,,,,,,,,,,,,,,,,,,,,,,,,,,,,,,,,,,,,,,,,,,,,,,,003,001,2023-11-11_13h41.04.619,untitled,2023.2.3,None,2023-11-11 13h41.21.263868 +0800,
8,condition_1/leftstar.PNG,left,,,,,1,17,42,2,,,,,,,,,226.65172860000007,,,,,,,,,,,,,,,,,,,,,,,,,,,,,,,,,,,,,,,,,,,,,226.57644389999996,226.65172860000007,227.07748719999995,227.07749620000004,227.5643579,228.01899589999994,227.84824909999998,227.8482603,229.1729871,229.1729871,,229.82811270000002,left,1,0.6539065999998002,None,,,,,,,,,,,,,,,,,,,,,,,,,,,,,,,,,,,,,,,,,,,,,,,,,,,,,,,,,,,,003,001,2023-11-11_13h41.04.619,untitled,2023.2.3,None,2023-11-11 13h41.21.263868 +0800,
2,condition_1/leftstar.PNG,space,,,,,1,18,43,17,,,,,,,,,229.90780369999993,,,,,,,,,,,,,,,,,,,,,,,,,,,,,,,,,,,,,,,,,,,,,229.82846139999992,229.90780369999993,230.33425149999994,230.33426209999993,230.814122,231.27120160000004,231.09785439999996,231.09786559999998,232.42367059999992,232.42367059999992,233.2106601999999,233.4515303999999,space,1,1.0243408999999701,None,,,,,,,,,,,,,,,,,,,,,,,,,,,,,,,,,,,,,,,,,,,,,,,,,,,,,,,,,,,,003,001,2023-11-11_13h41.04.619,untitled,2023.2.3,None,2023-11-11 13h41.21.263868 +0800,
2,condition_1/blank.PNG,space,,,,,1,19,44,9,,,,,,,,,233.52162040000007,,,,,,,,,,,,,,,,,,,,,,,,,,,,,,,,,,,,,,,,,,,,,233.45190939999998,233.52162040000007,233.9542454,233.95425509999995,234.44088390000002,234.7592585,234.72436330000005,234.724373,236.14811529999997,236.14811529999997,236.9344059,237.8048659000001,space,1,1.6558113999999478,None,,,,,,,,,,,,,,,,,,,,,,,,,,,,,,,,,,,,,,,,,,,,,,,,,,,,,,,,,,,,003,001,2023-11-11_13h41.04.619,untitled,2023.2.3,None,2023-11-11 13h41.21.263868 +0800,
9,condition_1/leftstar.PNG,left,,,,,1,20,45,3,,,,,,,,,237.87496659999988,,,,,,,,,,,,,,,,,,,,,,,,,,,,,,,,,,,,,,,,,,,,,237.80525310000007,237.87496659999988,238.3079161999999,238.3079302000001,238.79110960000003,239.24793290000002,239.07445899999993,239.07446890000006,240.4423753000001,240.4423753000001,241.23068919999992,241.61123180000004,left,1,1.1671400999998696,None,,,,,,,,,,,,,,,,,,,,,,,,,,,,,,,,,,,,,,,,,,,,,,,,,,,,,,,,,,,,003,001,2023-11-11_13h41.04.619,untitled,2023.2.3,None,2023-11-11 13h41.21.263868 +0800,
8,condition_1/blank.PNG,space,,,,,1,21,46,10,,,,,,,,,241.68222020000007,,,,,,,,,,,,,,,,,,,,,,,,,,,,,,,,,,,,,,,,,,,,,241.61160360000008,241.68222020000007,242.1141275,242.11413719999996,242.597489,242.9209100999999,242.8846344000001,242.88464550000003,244.30782139999997,244.30782139999997,245.09416310000006,246.21115919999988,space,1,1.9021350999998958,None,,,,,,,,,,,,,,,,,,,,,,,,,,,,,,,,,,,,,,,,,,,,,,,,,,,,,,,,,,,,003,001,2023-11-11_13h41.04.619,untitled,2023.2.3,None,2023-11-11 13h41.21.263868 +0800,
1,condition_1/rightstar.PNG,space,,,,,1,22,47,12,,,,,,,,,246.28546529999994,,,,,,,,,,,,,,,,,,,,,,,,,,,,,,,,,,,,,,,,,,,,,246.21153200000003,246.28546529999994,246.71413430000007,246.71414400000003,247.19746469999995,247.65853470000002,247.48136569999997,247.48137539999993,248.85178990000009,248.85178990000009,249.63741400000004,249.80838319999998,space,1,0.9540514000000258,None,,,,,,,,,,,,,,,,,,,,,,,,,,,,,,,,,,,,,,,,,,,,,,,,,,,,,,,,,,,,003,001,2023-11-11_13h41.04.619,untitled,2023.2.3,None,2023-11-11 13h41.21.263868 +0800,
1,condition_1/leftstar.PNG,space,,,,,1,23,48,22,,,,,,,,,249.88032989999988,,,,,,,,,,,,,,,,,,,,,,,,,,,,,,,,,,,,,,,,,,,,,249.80880189999993,249.88032989999988,250.31104430000005,250.31105359999992,250.7973282999999,251.2458349000001,251.08112920000008,251.08114079999996,252.4027506,252.4027506,253.19083909999995,253.40138950000005,space,1,0.9977292999999463,None,,,,,,,,,,,,,,,,,,,,,,,,,,,,,,,,,,,,,,,,,,,,,,,,,,,,,,,,,,,,003,001,2023-11-11_13h41.04.619,untitled,2023.2.3,None,2023-11-11 13h41.21.263868 +0800,
2,condition_1/rightstar.PNG,space,,,,,1,24,49,13,,,,,,,,,253.47821810000005,,,,,,,,,,,,,,,,,,,,,,,,,,,,,,,,,,,,,,,,,,,,,253.40177670000003,253.47821810000005,253.90433789999997,253.9043486999999,254.3874452,254.83912639999994,254.67080080000005,254.67081050000002,255.9957366000001,255.9957366000001,256.78399590000004,256.7789296000001,space,1,0.7823105000002215,None,,,,,,,,,,,,,,,,,,,,,,,,,,,,,,,,,,,,,,,,,,,,,,,,,,,,,,,,,,,,003,001,2023-11-11_13h41.04.619,untitled,2023.2.3,None,2023-11-11 13h41.21.263868 +0800,
,,,,,,,,,,,,,,,,,,,,,,,,,,,,,,,,,,,,,,,,,,,,,,,,,,,,,,,,,,,,,,,,,,,,,,,,,,,,,,,,256.77925630000004,256.78399590000004,256.78399590000004,259.6913282999999,space,2.9063026000001173,None,,,,,,,,,,,,,,,,,,,,,,,,,,,,,,,,,,,,,,,,,,,,,,,,,,,,,003,001,2023-11-11_13h41.04.619,untitled,2023.2.3,None,2023-11-11 13h41.21.263868 +0800,
,,,,,,,,,,,,,,,,,,,,,,,,,,,,,,,,,,,,,,,,,,,,,,,,,,,,,,,,,,,,,,,,,,,,,,,,,,,,,,,,,,,,,,,259.6913497999999,259.6951587000001,259.6951587000001,280.7512835,space,21.05421290000004,None,,,,,,,,,,,,,,,,,,,,,,,,,,,,,,,,,,,,,,,,,,,,,,003,001,2023-11-11_13h41.04.619,untitled,2023.2.3,None,2023-11-11 13h41.21.263868 +0800,
9,test2/rightstar.PNG,space,,,,,,,,,0,0,0,3,,,,,280.8579631,,,,,,,,,,,,,,,,,,,,,,,,,,,,,,,,,,,,,,,,,,,,,,,,,,,,,,,,,,,,,,,,,,,,,,,,,,,280.7552934,280.8579631,281.2541341000001,281.2541458999999,281.7374728,282.2314948999999,282.0210979000001,282.0211101,283.3543033000001,283.3543033000001,284.1439676,284.5633914,space,1.206031300000177,None,,,,,,,,,,,,,,,,,,,,,,,,,,,,,,,003,001,2023-11-11_13h41.04.619,untitled,2023.2.3,None,2023-11-11 13h41.21.263868 +0800,
1,test2/leftstar.PNG,left,,,,,,,,,0,1,1,0,,,,,284.6485766999999,,,,,,,,,,,,,,,,,,,,,,,,,,,,,,,,,,,,,,,,,,,,,,,,,,,,,,,,,,,,,,,,,,,,,,,,,,,284.5638398000001,284.6485766999999,285.06418959999996,285.064202,285.55084669999997,286.03545800000006,285.8345712,285.83458270000006,287.1603926,287.1603926,287.95111380000003,288.1686155,left,1.0039186999999856,None,,,,,,,,,,,,,,,,,,,,,,,,,,,,,,,003,001,2023-11-11_13h41.04.619,untitled,2023.2.3,None,2023-11-11 13h41.21.263868 +0800,
8,test2/rightstar.PNG,space,,,,,,,,,0,2,2,5,,,,,288.24874550000004,,,,,,,,,,,,,,,,,,,,,,,,,,,,,,,,,,,,,,,,,,,,,,,,,,,,,,,,,,,,,,,,,,,,,,,,,,,288.16894350000007,288.24874550000004,288.67074950000006,288.6707609,289.1571431,289.6251969,289.44446229999994,289.4444739999999,290.76604210000005,290.76604210000005,291.5541226,291.8247226000001,space,1.0555288000000473,None,,,,,,,,,,,,,,,,,,,,,,,,,,,,,,,003,001,2023-11-11_13h41.04.619,untitled,2023.2.3,None,2023-11-11 13h41.21.263868 +0800,
2,test2/leftstar.PNG,left,,,,,,,,,0,3,3,4,,,,,291.8985593,,,,,,,,,,,,,,,,,,,,,,,,,,,,,,,,,,,,,,,,,,,,,,,,,,,,,,,,,,,,,,,,,,,,,,,,,,,291.8251152,291.8985593,292.32751310000003,292.3275249999999,292.8107494000001,293.26537899999994,293.0946868000001,293.09469880000006,294.42269899999997,294.42269899999997,295.2107246999999,295.49856320000004,left,1.0739092999999684,None,,,,,,,,,,,,,,,,,,,,,,,,,,,,,,,003,001,2023-11-11_13h41.04.619,untitled,2023.2.3,None,2023-11-11 13h41.21.263868 +0800,
1,test2/blank.PNG,space,,,,,,,,,0,4,4,2,,,,,295.5752319999999,,,,,,,,,,,,,,,,,,,,,,,,,,,,,,,,,,,,,,,,,,,,,,,,,,,,,,,,,,,,,,,,,,,,,,,,,,,295.4989129999999,295.5752319999999,296.0005945999999,296.0006063000001,296.48755200000005,296.8025376999999,296.7709602,296.7709703999999,298.1990095000001,298.1990095000001,298.98747000000003,300.18786180000006,space,1.9864548000000468,None,,,,,,,,,,,,,,,,,,,,,,,,,,,,,,,003,001,2023-11-11_13h41.04.619,untitled,2023.2.3,None,2023-11-11 13h41.21.263868 +0800,
8,test2/rightstar.PNG,space,,,,,,,,,0,5,5,1,,,,,300.26180780000004,,,,,,,,,,,,,,,,,,,,,,,,,,,,,,,,,,,,,,,,,,,,,,,,,,,,,,,,,,,,,,,,,,,,,,,,,,,300.18819269999995,300.26180780000004,300.69430809999994,300.69431839999993,301.17412620000005,301.62515570000005,301.45769010000004,301.45770289999996,302.8410122,302.8410122,303.6274413000001,303.9186936000001,space,1.073550800000021,None,,,,,,,,,,,,,,,,,,,,,,,,,,,,,,,003,001,2023-11-11_13h41.04.619,untitled,2023.2.3,None,2023-11-11 13h41.21.263868 +0800,
,,,,,,,,,,,,,,,,,,,,,,,,,,,,,,,,,,,,,,,,,,,,,,,,,,,,,,,,,,,,,,,,,,,,,,,,,,,,,,,,,,,,,,,,,,,,,,,,,,,,,,,,,,,,,303.9189858,303.92306069999995,303.92306069999995,304.7150615999999,space,0.7885324000001219,None,,,,,,,,,,,,,,,,,,,,,,,,003,001,2023-11-11_13h41.04.619,untitled,2023.2.3,None,2023-11-11 13h41.21.263868 +0800,
,,,,,,,,,,,,,,,,,,,,,,,,,,,,,,,,,,,,,,,,,,,,,,,,,,,,,,,,,,,,,,,,,,,,,,,,,,,,,,,,,,,,,,,,,,,,,,,,,,,,,,,,,,,,,,,,,,,,304.71509289999995,304.7196087,304.7196087,305.5713575,space,0.8505956999999853,None,,,,,,,,,,,,,,,,,003,001,2023-11-11_13h41.04.619,untitled,2023.2.3,None,2023-11-11 13h41.21.263868 +0800,
2,condition_2/rightstar.PNG,right,,,,,,,,,,,,,0,0,0,13,305.6580151999999,,,,,,,,,,,,,,,,,,,,,,,,,,,,,,,,,,,,,,,,,,,,,,,,,,,,,,,,,,,,,,,,,,,,,,,,,,,,,,,,,,,,,,,,,,,,,,,,,,,,,,,,305.57670200000007,305.6580151999999,306.07408770000006,306.0741000999999,306.5574007,307.0186323999999,306.8409959999999,306.8410085999999,308.174221,308.174221,308.9607481999999,309.2477675,right,1,1.0706027000001086,None,003,001,2023-11-11_13h41.04.619,untitled,2023.2.3,None,2023-11-11 13h41.21.263868 +0800,
9,condition_2/leftstar.PNG,space,,,,,,,,,,,,,0,1,1,19,309.3222160999999,,,,,,,,,,,,,,,,,,,,,,,,,,,,,,,,,,,,,,,,,,,,,,,,,,,,,,,,,,,,,,,,,,,,,,,,,,,,,,,,,,,,,,,,,,,,,,,,,,,,,,,,309.2484101,309.3222160999999,309.75131310000006,309.7513254999999,310.2341326999999,310.7017991,310.5212758,310.5212882000001,311.8431518,311.8431518,312.63391049999996,312.9180211999999,space,1,1.0735912000000098,None,003,001,2023-11-11_13h41.04.619,untitled,2023.2.3,None,2023-11-11 13h41.21.263868 +0800,
8,condition_2/leftstar.PNG,space,,,,,,,,,,,,,0,2,2,18,312.99125159999994,,,,,,,,,,,,,,,,,,,,,,,,,,,,,,,,,,,,,,,,,,,,,,,,,,,,,,,,,,,,,,,,,,,,,,,,,,,,,,,,,,,,,,,,,,,,,,,,,,,,,,,,312.91848329999993,312.99125159999994,313.4208206999999,313.4208329999999,313.9045555,314.3616377000001,314.1879457,314.1879684999999,315.5161450999999,315.5161450999999,316.3076329999999,316.91177500000003,space,1,1.3898064999998496,None,003,001,2023-11-11_13h41.04.619,untitled,2023.2.3,None,2023-11-11 13h41.21.263868 +0800,
8,condition_2/rightstar.PNG,space,,,,,,,,,,,,,0,3,3,14,316.9846829999999,,,,,,,,,,,,,,,,,,,,,,,,,,,,,,,,,,,,,,,,,,,,,,,,,,,,,,,,,,,,,,,,,,,,,,,,,,,,,,,,,,,,,,,,,,,,,,,,,,,,,,,,316.9122665,316.9846829999999,317.4141534999999,317.41416520000007,317.90093750000005,318.3513349,318.18426049999994,318.1842712,319.5084482,319.5084482,320.30066940000006,320.5477776,space,1,1.0372460999999475,None,003,001,2023-11-11_13h41.04.619,untitled,2023.2.3,None,2023-11-11 13h41.21.263868 +0800,
8,condition_2/rightstar.PNG,space,,,,,,,,,,,,,0,4,4,6,320.6251050000001,,,,,,,,,,,,,,,,,,,,,,,,,,,,,,,,,,,,,,,,,,,,,,,,,,,,,,,,,,,,,,,,,,,,,,,,,,,,,,,,,,,,,,,,,,,,,,,,,,,,,,,,320.54819339999995,320.6251050000001,321.05085299999996,321.05086570000003,321.5341650999999,321.9818745,321.81760340000005,321.8176137999999,323.1421802,323.1421802,323.9306807999999,323.9410908,space,1,0.797999000000118,None,003,001,2023-11-11_13h41.04.619,untitled,2023.2.3,None,2023-11-11 13h41.21.263868 +0800,
2,condition_2/leftstar.PNG,left,,,,,,,,,,,,,0,5,5,22,324.01819810000006,,,,,,,,,,,,,,,,,,,,,,,,,,,,,,,,,,,,,,,,,,,,,,,,,,,,,,,,,,,,,,,,,,,,,,,,,,,,,,,,,,,,,,,,,,,,,,,,,,,,,,,,323.9415211999999,324.01819810000006,324.44781809999995,324.4478326000001,324.92743900000005,325.3719297,325.21090129999993,325.21091279999996,326.53530780000006,326.53530780000006,327.3240126999999,327.3916185999999,left,1,0.8541855000000851,None,003,001,2023-11-11_13h41.04.619,untitled,2023.2.3,None,2023-11-11 13h41.21.263868 +0800,
2,condition_2/blank.PNG,space,,,,,,,,,,,,,0,6,6,9,327.4678873999999,,,,,,,,,,,,,,,,,,,,,,,,,,,,,,,,,,,,,,,,,,,,,,,,,,,,,,,,,,,,,,,,,,,,,,,,,,,,,,,,,,,,,,,,,,,,,,,,,,,,,,,,327.3920017999999,327.4678873999999,327.89413850000005,327.8941511999999,328.38061459999994,328.6964230000001,328.66418309999995,328.6641950999999,330.08808870000007,330.08808870000007,330.87767529999996,330.9977269000001,space,1,0.9073907000001782,None,003,001,2023-11-11_13h41.04.619,untitled,2023.2.3,None,2023-11-11 13h41.21.263868 +0800,
1,condition_2/rightstar.PNG,right,,,,,,,,,,,,,0,7,7,21,331.0747672,,,,,,,,,,,,,,,,,,,,,,,,,,,,,,,,,,,,,,,,,,,,,,,,,,,,,,,,,,,,,,,,,,,,,,,,,,,,,,,,,,,,,,,,,,,,,,,,,,,,,,,,330.99809600000003,331.0747672,331.50070619999997,331.5007186999999,331.98410089999993,332.4282490999999,332.26730840000005,332.2673185000001,333.6331574000001,333.6331574000001,,334.08820560000004,right,1,0.4512358000001768,None,003,001,2023-11-11_13h41.04.619,untitled,2023.2.3,None,2023-11-11 13h41.21.263868 +0800,
1,condition_2/blank.PNG,space,,,,,,,,,,,,,0,8,8,8,334.1646502000001,,,,,,,,,,,,,,,,,,,,,,,,,,,,,,,,,,,,,,,,,,,,,,,,,,,,,,,,,,,,,,,,,,,,,,,,,,,,,,,,,,,,,,,,,,,,,,,,,,,,,,,,334.08858340000006,334.1646502000001,334.59081560000004,334.5908325999999,335.07736879999993,335.39141659999996,335.3611389,335.3611495,336.7816909999999,336.7816909999999,337.57064850000006,338.48476529999994,space,1,1.6997243000000708,None,003,001,2023-11-11_13h41.04.619,untitled,2023.2.3,None,2023-11-11 13h41.21.263868 +0800,
9,condition_2/blank.PNG,space,,,,,,,,,,,,,0,9,9,11,338.5511856999999,,,,,,,,,,,,,,,,,,,,,,,,,,,,,,,,,,,,,,,,,,,,,,,,,,,,,,,,,,,,,,,,,,,,,,,,,,,,,,,,,,,,,,,,,,,,,,,,,,,,,,,,338.4851506,338.5511856999999,338.9874628,338.98747419999995,339.47115929999995,339.7841684,339.7545092999999,339.7545216000001,341.0742253000001,341.0742253000001,341.86081089999993,342.2012698000001,space,1,1.1240390000000389,None,003,001,2023-11-11_13h41.04.619,untitled,2023.2.3,None,2023-11-11 13h41.21.263868 +0800,
8,condition_2/leftstar.PNG,space,,,,,,,,,,,,,0,10,10,2,342.2669151,,,,,,,,,,,,,,,,,,,,,,,,,,,,,,,,,,,,,,,,,,,,,,,,,,,,,,,,,,,,,,,,,,,,,,,,,,,,,,,,,,,,,,,,,,,,,,,,,,,,,,,,342.20165700000007,342.2669151,342.7041154000001,342.70412940000006,343.18752530000006,343.6350706999999,343.47104319999994,343.4710540000001,344.8355432999999,344.8355432999999,345.6239763000001,345.83130600000004,space,1,0.9911693999999898,None,003,001,2023-11-11_13h41.04.619,untitled,2023.2.3,None,2023-11-11 13h41.21.263868 +0800,
9,condition_2/rightstar.PNG,space,,,,,,,,,,,,,0,11,11,7,345.90203500000007,,,,,,,,,,,,,,,,,,,,,,,,,,,,,,,,,,,,,,,,,,,,,,,,,,,,,,,,,,,,,,,,,,,,,,,,,,,,,,,,,,,,,,,,,,,,,,,,,,,,,,,,345.83169939999993,345.90203500000007,346.3339974999999,346.3340097999999,346.81713319999994,347.2718067999999,347.1008554,347.1008658999999,348.42826719999994,348.42826719999994,349.22080170000004,349.44787870000005,space,1,1.0185394000000088,None,003,001,2023-11-11_13h41.04.619,untitled,2023.2.3,None,2023-11-11 13h41.21.263868 +0800,
9,condition_2/leftstar.PNG,space,,,,,,,,,,,,,0,12,12,24,349.51808129999995,,,,,,,,,,,,,,,,,,,,,,,,,,,,,,,,,,,,,,,,,,,,,,,,,,,,,,,,,,,,,,,,,,,,,,,,,,,,,,,,,,,,,,,,,,,,,,,,,,,,,,,,349.4482796,349.51808129999995,349.95035400000006,349.9503651,350.43397460000006,350.8850943,350.71763540000006,350.7176468,352.0415591000001,352.0415591000001,,352.7642002,space,1,0.7213959999999133,None,003,001,2023-11-11_13h41.04.619,untitled,2023.2.3,None,2023-11-11 13h41.21.263868 +0800,
1,condition_2/leftstar.PNG,left,,,,,,,,,,,,,0,13,13,0,352.8306906999999,,,,,,,,,,,,,,,,,,,,,,,,,,,,,,,,,,,,,,,,,,,,,,,,,,,,,,,,,,,,,,,,,,,,,,,,,,,,,,,,,,,,,,,,,,,,,,,,,,,,,,,,352.7645659,352.8306906999999,353.2680989999999,353.2681156000001,353.75109309999993,354.20115239999996,354.0343948,354.0344064000001,355.3593438999999,355.3593438999999,,356.1313891,left,1,0.7711604000000989,None,003,001,2023-11-11_13h41.04.619,untitled,2023.2.3,None,2023-11-11 13h41.21.263868 +0800,
8,condition_2/rightstar.PNG,space,,,,,,,,,,,,,0,14,14,23,356.20808609999995,,,,,,,,,,,,,,,,,,,,,,,,,,,,,,,,,,,,,,,,,,,,,,,,,,,,,,,,,,,,,,,,,,,,,,,,,,,,,,,,,,,,,,,,,,,,,,,,,,,,,,,,356.1317557,356.20808609999995,356.63427260000003,356.63428479999993,357.11733849999996,357.56508439999993,357.4009724,357.4009917000001,358.7280284000001,358.7280284000001,,359.3512436000001,space,1,0.6224190000000362,None,003,001,2023-11-11_13h41.04.619,untitled,2023.2.3,None,2023-11-11 13h41.21.263868 +0800,
8,condition_2/blank.PNG,space,,,,,,,,,,,,,0,15,15,10,359.42105300000003,,,,,,,,,,,,,,,,,,,,,,,,,,,,,,,,,,,,,,,,,,,,,,,,,,,,,,,,,,,,,,,,,,,,,,,,,,,,,,,,,,,,,,,,,,,,,,,,,,,,,,,,359.3516168000001,359.42105300000003,359.85408140000004,359.85409389999995,360.3375194,360.6561142999999,360.6212011,360.6212132999999,362.0484291,362.0484291,362.8372356,363.51450279999995,space,1,1.4642127999998138,None,003,001,2023-11-11_13h41.04.619,untitled,2023.2.3,None,2023-11-11 13h41.21.263868 +0800,
1,condition_2/rightstar.PNG,right,,,,,,,,,,,,,0,16,16,4,363.5848154,,,,,,,,,,,,,,,,,,,,,,,,,,,,,,,,,,,,,,,,,,,,,,,,,,,,,,,,,,,,,,,,,,,,,,,,,,,,,,,,,,,,,,,,,,,,,,,,,,,,,,,,363.51488199999994,363.5848154,364.0214366,364.02145010000004,364.50063879999993,364.9485640999999,364.78468150000003,364.7846938,366.1500590999999,366.1500590999999,366.9372599000001,367.02449939999997,right,1,0.8717811000001348,None,003,001,2023-11-11_13h41.04.619,untitled,2023.2.3,None,2023-11-11 13h41.21.263868 +0800,
9,condition_2/leftstar.PNG,space,,,,,,,,,,,,,0,17,17,3,367.1009268999999,,,,,,,,,,,,,,,,,,,,,,,,,,,,,,,,,,,,,,,,,,,,,,,,,,,,,,,,,,,,,,,,,,,,,,,,,,,,,,,,,,,,,,,,,,,,,,,,,,,,,,,,367.0248632999999,367.1009268999999,367.52729139999997,367.52730199999996,368.0107183,368.4551237999999,368.29432999999995,368.2943427,369.61831370000004,369.61831370000004,370.4072836999999,371.64144609999994,left,0,2.0212324000001445,None,003,001,2023-11-11_13h41.04.619,untitled,2023.2.3,None,2023-11-11 13h41.21.263868 +0800,
1,condition_2/rightstar.PNG,right,,,,,,,,,,,,,0,18,18,12,371.7146831,,,,,,,,,,,,,,,,,,,,,,,,,,,,,,,,,,,,,,,,,,,,,,,,,,,,,,,,,,,,,,,,,,,,,,,,,,,,,,,,,,,,,,,,,,,,,,,,,,,,,,,,371.6418464000001,371.7146831,372.1440269,372.14403889999994,372.63035360000003,373.07118330000003,372.91422940000007,372.91424200000006,374.2352363,374.2352363,,374.9947657,right,1,0.7582512999999835,None,003,001,2023-11-11_13h41.04.619,untitled,2023.2.3,None,2023-11-11 13h41.21.263868 +0800,
9,condition_2/rightstar.PNG,space,,,,,,,,,,,,,0,19,19,15,375.0683004,,,,,,,,,,,,,,,,,,,,,,,,,,,,,,,,,,,,,,,,,,,,,,,,,,,,,,,,,,,,,,,,,,,,,,,,,,,,,,,,,,,,,,,,,,,,,,,,,,,,,,,,374.995134,375.0683004,375.4973884000001,375.4974029,375.98044219999997,376.4345951,376.2676025999999,376.2676140000001,377.5915743999999,377.5915743999999,378.3773059,378.49446420000004,space,1,0.8998398000001089,None,003,001,2023-11-11_13h41.04.619,untitled,2023.2.3,None,2023-11-11 13h41.21.263868 +0800,
2,condition_2/blank.PNG,space,,,,,,,,,,,,,0,20,20,20,378.5717357000001,,,,,,,,,,,,,,,,,,,,,,,,,,,,,,,,,,,,,,,,,,,,,,,,,,,,,,,,,,,,,,,,,,,,,,,,,,,,,,,,,,,,,,,,,,,,,,,,,,,,,,,,378.4949081,378.5717357000001,378.9973290999999,378.99734190000004,379.48056240000005,379.79525020000005,379.76425470000004,379.7642659999999,381.1885867000001,381.1885867000001,381.9772811999999,382.58772180000005,space,1,1.3965614999999616,None,003,001,2023-11-11_13h41.04.619,untitled,2023.2.3,None,2023-11-11 13h41.21.263868 +0800,
2,condition_2/leftstar.PNG,left,,,,,,,,,,,,,0,21,21,1,382.6645401999999,,,,,,,,,,,,,,,,,,,,,,,,,,,,,,,,,,,,,,,,,,,,,,,,,,,,,,,,,,,,,,,,,,,,,,,,,,,,,,,,,,,,,,,,,,,,,,,,,,,,,,,,382.58810470000003,382.6645401999999,383.0907755999999,383.0907884999999,383.5739982,384.0138790000001,383.8575862,383.8575966000001,385.22093629999995,385.22093629999995,,385.84817440000006,left,1,0.6265359999999873,None,003,001,2023-11-11_13h41.04.619,untitled,2023.2.3,None,2023-11-11 13h41.21.263868 +0800,
2,condition_2/leftstar.PNG,left,,,,,,,,,,,,,0,22,22,17,385.92783639999993,,,,,,,,,,,,,,,,,,,,,,,,,,,,,,,,,,,,,,,,,,,,,,,,,,,,,,,,,,,,,,,,,,,,,,,,,,,,,,,,,,,,,,,,,,,,,,,,,,,,,,,,385.8485512,385.92783639999993,386.35048359999996,386.35049559999993,386.83365060000006,387.2814616999999,387.11751430000004,387.1175243,388.44512770000006,388.44512770000006,,388.9648577999999,left,1,0.5143951999998535,None,003,001,2023-11-11_13h41.04.619,untitled,2023.2.3,None,2023-11-11 13h41.21.263868 +0800,
1,condition_2/leftstar.PNG,left,,,,,,,,,,,,,0,23,23,16,389.0386125,,,,,,,,,,,,,,,,,,,,,,,,,,,,,,,,,,,,,,,,,,,,,,,,,,,,,,,,,,,,,,,,,,,,,,,,,,,,,,,,,,,,,,,,,,,,,,,,,,,,,,,,388.9652604999999,389.0386125,389.4675514999999,389.46756400000004,389.9539256999999,390.40129780000007,390.23760300000004,390.23761360000003,391.5615633,391.5615633,392.3474217999999,392.35150079999994,left,1,0.7879539000000477,None,003,001,2023-11-11_13h41.04.619,untitled,2023.2.3,None,2023-11-11 13h41.21.263868 +0800,
2,condition_2/rightstar.PNG,left,,,,,,,,,,,,,0,24,24,5,392.42437369999993,,,,,,,,,,,,,,,,,,,,,,,,,,,,,,,,,,,,,,,,,,,,,,,,,,,,,,,,,,,,,,,,,,,,,,,,,,,,,,,,,,,,,,,,,,,,,,,,,,,,,,,,392.3518921,392.42437369999993,392.8542307,392.85424280000007,393.34080599999993,393.7886208,393.6242543000001,393.6242643999999,394.9479782000001,394.9479782000001,,395.5211798,right,0,0.567395900000065,None,003,001,2023-11-11_13h41.04.619,untitled,2023.2.3,None,2023-11-11 13h41.21.263868 +0800,
2,condition_2/leftstar.PNG,left,,,,,,,,,,,,,1,0,25,1,395.59136579999995,,,,,,,,,,,,,,,,,,,,,,,,,,,,,,,,,,,,,,,,,,,,,,,,,,,,,,,,,,,,,,,,,,,,,,,,,,,,,,,,,,,,,,,,,,,,,,,,,,,,,,,,395.5215433000001,395.59136579999995,396.0241847,396.02419729999997,396.51076119999993,396.96114050000006,396.79437959999996,396.79439049999996,398.11498030000007,398.11498030000007,,398.5149441000001,left,1,0.39224510000008195,None,003,001,2023-11-11_13h41.04.619,untitled,2023.2.3,None,2023-11-11 13h41.21.263868 +0800,
8,condition_2/leftstar.PNG,space,,,,,,,,,,,,,1,1,26,18,398.5800058,,,,,,,,,,,,,,,,,,,,,,,,,,,,,,,,,,,,,,,,,,,,,,,,,,,,,,,,,,,,,,,,,,,,,,,,,,,,,,,,,,,,,,,,,,,,,,,,,,,,,,,,398.5153508000001,398.5800058,399.01739369999996,399.0174076999999,399.5070075000001,399.9516148,399.79105490000006,399.791066,401.1120059,401.1120059,,401.5646202999999,space,1,0.4462379999999939,None,003,001,2023-11-11_13h41.04.619,untitled,2023.2.3,None,2023-11-11 13h41.21.263868 +0800,
2,condition_2/blank.PNG,space,,,,,,,,,,,,,1,2,27,9,401.64096270000005,,,,,,,,,,,,,,,,,,,,,,,,,,,,,,,,,,,,,,,,,,,,,,,,,,,,,,,,,,,,,,,,,,,,,,,,,,,,,,,,,,,,,,,,,,,,,,,,,,,,,,,,401.56498439999996,401.64096270000005,402.0672284,402.0672396,402.5507112,402.8651548,402.8343743999999,402.8343864000001,404.2548807999999,404.2548807999999,,404.8244915,space,1,0.5668573000000379,None,003,001,2023-11-11_13h41.04.619,untitled,2023.2.3,None,2023-11-11 13h41.21.263868 +0800,
1,condition_2/rightstar.PNG,right,,,,,,,,,,,,,1,3,28,12,404.89423250000004,,,,,,,,,,,,,,,,,,,,,,,,,,,,,,,,,,,,,,,,,,,,,,,,,,,,,,,,,,,,,,,,,,,,,,,,,,,,,,,,,,,,,,,,,,,,,,,,,,,,,,,,404.8249092000001,404.89423250000004,405.3273380999999,405.32735060000005,405.8108428999999,406.2516135000001,406.0940195999999,406.0940298999999,407.4588893,407.4588893,,408.1943724,right,1,0.7324725999999373,None,003,001,2023-11-11_13h41.04.619,untitled,2023.2.3,None,2023-11-11 13h41.21.263868 +0800,
1,condition_2/blank.PNG,space,,,,,,,,,,,,,1,4,29,8,408.2615272999999,,,,,,,,,,,,,,,,,,,,,,,,,,,,,,,,,,,,,,,,,,,,,,,,,,,,,,,,,,,,,,,,,,,,,,,,,,,,,,,,,,,,,,,,,,,,,,,,,,,,,,,,408.1947700999999,408.2615272999999,408.70083969999996,408.7008530999999,409.18457409999996,409.49736499999995,409.4676595000001,409.46767049999994,410.88504280000006,410.88504280000006,411.67393659999993,412.1177097,space,1,1.2311036000000968,None,003,001,2023-11-11_13h41.04.619,untitled,2023.2.3,None,2023-11-11 13h41.21.263868 +0800,
9,condition_2/leftstar.PNG,space,,,,,,,,,,,,,1,5,30,19,412.1942233,,,,,,,,,,,,,,,,,,,,,,,,,,,,,,,,,,,,,,,,,,,,,,,,,,,,,,,,,,,,,,,,,,,,,,,,,,,,,,,,,,,,,,,,,,,,,,,,,,,,,,,,412.1180836000001,412.1942233,412.62066559999994,412.62067780000007,413.1039708999999,413.5608660999999,413.3874799,413.38749140000004,414.75379780000003,414.75379780000003,,415.3045838999999,space,1,0.5476951999999073,None,003,001,2023-11-11_13h41.04.619,untitled,2023.2.3,None,2023-11-11 13h41.21.263868 +0800,
9,condition_2/leftstar.PNG,space,,,,,,,,,,,,,1,6,31,3,415.37421730000005,,,,,,,,,,,,,,,,,,,,,,,,,,,,,,,,,,,,,,,,,,,,,,,,,,,,,,,,,,,,,,,,,,,,,,,,,,,,,,,,,,,,,,,,,,,,,,,,,,,,,,,,415.3050393000001,415.37421730000005,415.8078244000001,415.8078373000001,416.2907098999999,416.74168729999997,416.57786080000005,416.57787469999994,417.898451,417.898451,418.69096579999996,418.7244046999999,space,1,0.8241471999999703,None,003,001,2023-11-11_13h41.04.619,untitled,2023.2.3,None,2023-11-11 13h41.21.263868 +0800,
9,condition_2/leftstar.PNG,space,,,,,,,,,,,,,1,7,32,24,418.7947200000001,,,,,,,,,,,,,,,,,,,,,,,,,,,,,,,,,,,,,,,,,,,,,,,,,,,,,,,,,,,,,,,,,,,,,,,,,,,,,,,,,,,,,,,,,,,,,,,,,,,,,,,,418.72482949999994,418.7947200000001,419.2273699,419.22738290000007,419.7106469999999,420.15611549999994,419.9941452999999,419.9941592,421.3183755,421.3183755,,421.9978951999999,space,1,0.6751419999998234,None,003,001,2023-11-11_13h41.04.619,untitled,2023.2.3,None,2023-11-11 13h41.21.263868 +0800,
1,condition_2/rightstar.PNG,right,,,,,,,,,,,,,1,8,33,4,422.0710099999999,,,,,,,,,,,,,,,,,,,,,,,,,,,,,,,,,,,,,,,,,,,,,,,,,,,,,,,,,,,,,,,,,,,,,,,,,,,,,,,,,,,,,,,,,,,,,,,,,,,,,,,,421.9983371999999,422.0710099999999,422.50096899999994,422.5009811,422.9837571999999,423.4247095999999,423.26768059999995,423.2676921,424.5920879999999,424.5920879999999,,425.1511249,right,1,0.5575533999999607,None,003,001,2023-11-11_13h41.04.619,untitled,2023.2.3,None,2023-11-11 13h41.21.263868 +0800,
9,condition_2/rightstar.PNG,space,,,,,,,,,,,,,1,9,34,15,425.22802479999996,,,,,,,,,,,,,,,,,,,,,,,,,,,,,,,,,,,,,,,,,,,,,,,,,,,,,,,,,,,,,,,,,,,,,,,,,,,,,,,,,,,,,,,,,,,,,,,,,,,,,,,,425.1514887999999,425.22802479999996,425.65439689999994,425.6544085999999,426.1372715,426.5982827,426.4205936000001,426.4206067,427.744872,427.744872,,428.1713399,space,1,0.4246590999998716,None,003,001,2023-11-11_13h41.04.619,untitled,2023.2.3,None,2023-11-11 13h41.21.263868 +0800,
2,condition_2/leftstar.PNG,left,,,,,,,,,,,,,1,10,35,22,428.2446651,,,,,,,,,,,,,,,,,,,,,,,,,,,,,,,,,,,,,,,,,,,,,,,,,,,,,,,,,,,,,,,,,,,,,,,,,,,,,,,,,,,,,,,,,,,,,,,,,,,,,,,,428.171699,428.2446651,428.67608399999995,428.67609500000003,429.1605906,429.604916,429.4444039,429.4444151,430.7687284000001,430.7687284000001,,431.2213253,left,1,0.45176470000001245,None,003,001,2023-11-11_13h41.04.619,untitled,2023.2.3,None,2023-11-11 13h41.21.263868 +0800,
2,condition_2/rightstar.PNG,left,,,,,,,,,,,,,1,11,36,5,431.2985016,,,,,,,,,,,,,,,,,,,,,,,,,,,,,,,,,,,,,,,,,,,,,,,,,,,,,,,,,,,,,,,,,,,,,,,,,,,,,,,,,,,,,,,,,,,,,,,,,,,,,,,,431.2216794000001,431.2985016,431.7239784000001,431.7239890999999,432.2105289000001,432.65494579999995,432.4941481999999,432.4941598999999,433.8154692999999,433.8154692999999,,434.24160529999995,right,0,0.42233650000002854,None,003,001,2023-11-11_13h41.04.619,untitled,2023.2.3,None,2023-11-11 13h41.21.263868 +0800,
9,condition_2/blank.PNG,space,,,,,,,,,,,,,1,12,37,11,434.3151444,,,,,,,,,,,,,,,,,,,,,,,,,,,,,,,,,,,,,,,,,,,,,,,,,,,,,,,,,,,,,,,,,,,,,,,,,,,,,,,,,,,,,,,,,,,,,,,,,,,,,,,,434.2419794,434.3151444,434.7446801000001,434.7446938999999,435.2307636999999,435.5488777999999,435.51431909999997,435.51432909999994,436.94167029999994,436.94167029999994,437.7305570000001,437.8576121000001,space,1,0.9123678999999356,None,003,001,2023-11-11_13h41.04.619,untitled,2023.2.3,None,2023-11-11 13h41.21.263868 +0800,
8,condition_2/leftstar.PNG,space,,,,,,,,,,,,,1,13,38,2,437.9377896000001,,,,,,,,,,,,,,,,,,,,,,,,,,,,,,,,,,,,,,,,,,,,,,,,,,,,,,,,,,,,,,,,,,,,,,,,,,,,,,,,,,,,,,,,,,,,,,,,,,,,,,,,437.85818100000006,437.9377896000001,438.3607449000001,438.36075660000006,438.84409170000004,439.29181760000006,439.1277038999999,439.1277158999999,440.4901562,440.4901562,,441.07149789999994,space,1,0.5806978000000527,None,003,001,2023-11-11_13h41.04.619,untitled,2023.2.3,None,2023-11-11 13h41.21.263868 +0800,
8,condition_2/blank.PNG,space,,,,,,,,,,,,,1,14,39,10,441.14443830000005,,,,,,,,,,,,,,,,,,,,,,,,,,,,,,,,,,,,,,,,,,,,,,,,,,,,,,,,,,,,,,,,,,,,,,,,,,,,,,,,,,,,,,,,,,,,,,,,,,,,,,,,441.07186780000006,441.14443830000005,441.5739260999999,441.57393679999996,442.0605074,442.37390619999996,442.34402610000006,442.3440372,443.76149069999997,443.76149069999997,,444.17783740000004,space,1,0.4145151000000169,None,003,001,2023-11-11_13h41.04.619,untitled,2023.2.3,None,2023-11-11 13h41.21.263868 +0800,
8,condition_2/rightstar.PNG,space,,,,,,,,,,,,,1,15,40,6,444.2544296000001,,,,,,,,,,,,,,,,,,,,,,,,,,,,,,,,,,,,,,,,,,,,,,,,,,,,,,,,,,,,,,,,,,,,,,,,,,,,,,,,,,,,,,,,,,,,,,,,,,,,,,,,444.17820630000006,444.2544296000001,444.6805784999999,444.68059070000004,445.16395880000005,445.61167550000005,445.4478704999999,445.4478858,446.8074047,446.8074047,,447.2845198,space,1,0.47569389999989653,None,003,001,2023-11-11_13h41.04.619,untitled,2023.2.3,None,2023-11-11 13h41.21.263868 +0800,
1,condition_2/leftstar.PNG,left,,,,,,,,,,,,,1,16,41,16,447.3552038,,,,,,,,,,,,,,,,,,,,,,,,,,,,,,,,,,,,,,,,,,,,,,,,,,,,,,,,,,,,,,,,,,,,,,,,,,,,,,,,,,,,,,,,,,,,,,,,,,,,,,,,447.2849031999999,447.3552038,447.78729640000006,447.78730889999997,448.270487,448.71494430000007,448.55410959999995,448.55411989999993,449.87861840000005,449.87861840000005,,450.5178911999999,left,1,0.6384272999998757,None,003,001,2023-11-11_13h41.04.619,untitled,2023.2.3,None,2023-11-11 13h41.21.263868 +0800,
9,condition_2/rightstar.PNG,space,,,,,,,,,,,,,1,17,42,7,450.58466640000006,,,,,,,,,,,,,,,,,,,,,,,,,,,,,,,,,,,,,,,,,,,,,,,,,,,,,,,,,,,,,,,,,,,,,,,,,,,,,,,,,,,,,,,,,,,,,,,,,,,,,,,,450.51831089999996,450.58466640000006,451.02074719999996,451.0207607,451.50406670000007,451.9516764,451.7874532000001,451.7874638999999,453.1118744999999,453.1118744999999,453.9747273999999,453.89498030000004,space,1,0.7803549000000203,None,003,001,2023-11-11_13h41.04.619,untitled,2023.2.3,None,2023-11-11 13h41.21.263868 +0800,
1,condition_2/leftstar.PNG,left,,,,,,,,,,,,,1,18,43,0,453.9747273999999,,,,,,,,,,,,,,,,,,,,,,,,,,,,,,,,,,,,,,,,,,,,,,,,,,,,,,,,,,,,,,,,,,,,,,,,,,,,,,,,,,,,,,,,,,,,,,,,,,,,,,,,453.89541310000004,453.9747273999999,454.3973008999999,454.39731430000006,454.8837762999999,455.33182310000007,455.16736220000007,455.16737480000006,456.4912414999999,456.4912414999999,,457.0512570000001,left,1,0.5593592000000172,None,003,001,2023-11-11_13h41.04.619,untitled,2023.2.3,None,2023-11-11 13h41.21.263868 +0800,
8,condition_2/rightstar.PNG,space,,,,,,,,,,,,,1,19,44,14,457.127974,,,,,,,,,,,,,,,,,,,,,,,,,,,,,,,,,,,,,,,,,,,,,,,,,,,,,,,,,,,,,,,,,,,,,,,,,,,,,,,,,,,,,,,,,,,,,,,,,,,,,,,,457.0516104000001,457.127974,457.55392529999995,457.5539375999999,458.0371433,458.4784691,458.32042309999997,458.3204338999999,459.64843930000006,459.64843930000006,,459.9578675,space,1,0.3071611000000303,None,003,001,2023-11-11_13h41.04.619,untitled,2023.2.3,None,2023-11-11 13h41.21.263868 +0800,
8,condition_2/rightstar.PNG,space,,,,,,,,,,,,,1,20,45,23,460.02338729999997,,,,,,,,,,,,,,,,,,,,,,,,,,,,,,,,,,,,,,,,,,,,,,,,,,,,,,,,,,,,,,,,,,,,,,,,,,,,,,,,,,,,,,,,,,,,,,,,,,,,,,,,459.9582797999999,460.02338729999997,460.4607338999999,460.4607458999999,460.94402519999994,461.39508920000003,461.2271820000001,461.22719559999996,462.5531536000001,462.5531536000001,,463.10811450000006,space,1,0.5512604000000465,None,003,001,2023-11-11_13h41.04.619,untitled,2023.2.3,None,2023-11-11 13h41.21.263868 +0800,
1,condition_2/rightstar.PNG,right,,,,,,,,,,,,,1,21,46,21,463.1776903,,,,,,,,,,,,,,,,,,,,,,,,,,,,,,,,,,,,,,,,,,,,,,,,,,,,,,,,,,,,,,,,,,,,,,,,,,,,,,,,,,,,,,,,,,,,,,,,,,,,,,,,463.10854689999996,463.1776903,463.6109196,463.6109317999999,464.09735709999995,464.5377114999999,464.3814047000001,464.3814202000001,465.7051397,465.7051397,,466.0844526000001,right,1,0.3729455999998663,None,003,001,2023-11-11_13h41.04.619,untitled,2023.2.3,None,2023-11-11 13h41.21.263868 +0800,
2,condition_2/blank.PNG,space,,,,,,,,,,,,,1,22,47,20,466.1551886,,,,,,,,,,,,,,,,,,,,,,,,,,,,,,,,,,,,,,,,,,,,,,,,,,,,,,,,,,,,,,,,,,,,,,,,,,,,,,,,,,,,,,,,,,,,,,,,,,,,,,,,466.08486990000006,466.1551886,466.5875667999999,466.5875796,467.0705631000001,467.3843887999999,467.35419909999996,467.35422330000006,468.7813862999999,468.7813862999999,469.5671703999999,469.71476729999995,space,1,0.9272008999998889,None,003,001,2023-11-11_13h41.04.619,untitled,2023.2.3,None,2023-11-11 13h41.21.263868 +0800,
2,condition_2/leftstar.PNG,left,,,,,,,,,,,,,1,23,48,17,469.78746449999994,,,,,,,,,,,,,,,,,,,,,,,,,,,,,,,,,,,,,,,,,,,,,,,,,,,,,,,,,,,,,,,,,,,,,,,,,,,,,,,,,,,,,,,,,,,,,,,,,,,,,,,,469.7151867,469.78746449999994,470.2172386,470.2172515,470.70401730000003,471.1479371999999,470.9908224999999,470.9908344999999,472.34741929999996,472.34741929999996,,473.01762770000005,left,1,0.6682625000000826,None,003,001,2023-11-11_13h41.04.619,untitled,2023.2.3,None,2023-11-11 13h41.21.263868 +0800,
2,condition_2/rightstar.PNG,right,,,,,,,,,,,,,1,24,49,13,473.09148860000005,,,,,,,,,,,,,,,,,,,,,,,,,,,,,,,,,,,,,,,,,,,,,,,,,,,,,,,,,,,,,,,,,,,,,,,,,,,,,,,,,,,,,,,,,,,,,,,,,,,,,,,,473.01800159999993,473.09148860000005,473.52072380000004,473.5207362000001,474.003827,474.4485075,474.2908092,474.29081870000005,475.6114955999999,475.6114955999999,,476.07130600000005,right,1,0.45851489999995465,None,003,001,2023-11-11_13h41.04.619,untitled,2023.2.3,None,2023-11-11 13h41.21.263868 +0800,
