stimuli,star,CorrectAns,trials_3.thisRepN,trials_3.thisTrialN,trials_3.thisN,trials_3.thisIndex,trials.thisRepN,trials.thisTrialN,trials.thisN,trials.thisIndex,trials_4.thisRepN,trials_4.thisTrialN,trials_4.thisN,trials_4.thisIndex,trials_2.thisRepN,trials_2.thisTrialN,trials_2.thisN,trials_2.thisIndex,thisRow.t,notes,routine_21.started,text_9.started,key_resp_8.started,routine_21.stopped,key_resp_8.keys,key_resp_8.rt,key_resp_8.duration,introduction.started,text_6.started,key_resp_5.started,introduction.stopped,key_resp_5.keys,key_resp_5.rt,key_resp_5.duration,routine_14.started,image_6.started,routine_14.stopped,routine_16.started,text_4.started,text_4.stopped,routine_16.stopped,routine_17.started,image_7.started,key_resp_3.started,routine_17.stopped,key_resp_3.keys,key_resp_3.rt,key_resp_3.duration,image_7.stopped,routine_20.started,text_8.started,key_resp_7.started,routine_20.stopped,key_resp_7.keys,key_resp_7.rt,key_resp_7.duration,routine_18.started,text_5.started,key_resp_4.started,routine_18.stopped,key_resp_4.keys,key_resp_4.rt,key_resp_4.duration,trial.started,image_3.started,trial.stopped,routine.started,text_3.started,text_3.stopped,routine.stopped,routine_1.started,image_2.started,key_resp.started,routine_1.stopped,key_resp.keys,key_resp.corr,key_resp.rt,key_resp.duration,image_2.stopped,routine_22.started,text_10.started,key_resp_9.started,routine_22.stopped,key_resp_9.keys,key_resp_9.rt,key_resp_9.duration,routine_19.started,text_7.started,key_resp_6.started,routine_19.stopped,key_resp_6.keys,key_resp_6.rt,key_resp_6.duration,routine_23.started,image_8.started,routine_23.stopped,routine_24.started,text_11.started,text_11.stopped,routine_24.stopped,routine_25.started,image_9.started,key_resp_10.started,image_9.stopped,routine_25.stopped,key_resp_10.keys,key_resp_10.rt,key_resp_10.duration,routine_26.started,text_12.started,key_resp_11.started,text_12.stopped,routine_26.stopped,key_resp_11.keys,key_resp_11.rt,key_resp_11.duration,routine_27.started,text_13.started,key_resp_12.started,text_13.stopped,routine_27.stopped,key_resp_12.keys,key_resp_12.rt,key_resp_12.duration,routine_10.started,image_4.started,routine_10.stopped,routine_11.started,text.started,text.stopped,routine_11.stopped,routine_12.started,image_5.started,key_resp_2.started,routine_12.stopped,key_resp_2.keys,key_resp_2.corr,key_resp_2.rt,key_resp_2.duration,image_5.stopped,participant,session,date,expName,psychopyVersion,frameRate,expStart,
,,,,,,,,,,,,,,,,,,,,,0.017562499997438863,0.0356024999928195,0.0356024999928195,2.1511281999992207,space,2.10934830000042,None,,,,,,,,,,,,,,,,,,,,,,,,,,,,,,,,,,,,,,,,,,,,,,,,,,,,,,,,,,,,,,,,,,,,,,,,,,,,,,,,,,,,,,,,,,,,,,,,,,,,,,,,,,,,,,,,,,003,001,2023-11-12_13h59.29.080,untitled,2023.2.3,59.60516347420131,2023-11-12 13h59.38.604721 +0800,
,,,,,,,,,,,,,,,,,,,,,,,,,,,,2.1511478000029456,2.1670409999933327,2.1670409999933327,35.40111429999524,space,33.23166370000399,None,,,,,,,,,,,,,,,,,,,,,,,,,,,,,,,,,,,,,,,,,,,,,,,,,,,,,,,,,,,,,,,,,,,,,,,,,,,,,,,,,,,,,,,,,,,,,,,,,,,,,,,,,,,003,001,2023-11-12_13h59.29.080,untitled,2023.2.3,59.60516347420131,2023-11-12 13h59.38.604721 +0800,
2,test/leftstar.PNG,space,0,0,0,4,,,,,,,,,,,,,35.48728879999544,,,,,,,,,,,,,,,,35.406372600002214,35.48728879999544,35.90163759999268,35.90164860000368,36.400542100003804,36.851513100002194,36.68407190000289,36.68409249999968,38.017080399993574,38.017080399993574,38.368061000001035,left,0.33920400000351947,None,,,,,,,,,,,,,,,,,,,,,,,,,,,,,,,,,,,,,,,,,,,,,,,,,,,,,,,,,,,,,,,,,,,,,,,,,,,,,,,,,,,,,,,,,,,,,003,001,2023-11-12_13h59.29.080,untitled,2023.2.3,59.60516347420131,2023-11-12 13h59.38.604721 +0800,
8,test/leftstar.PNG,left,0,1,1,5,,,,,,,,,,,,,38.45085989999643,,,,,,,,,,,,,,,,38.36849049999728,38.45085989999643,38.88416349999898,38.88417320000008,39.36766760000319,39.81726260000141,39.651611799999955,39.65162209999107,40.96718839999812,40.96718839999812,41.88506050000433,left,0.9150113999930909,None,41.76760629999626,,,,,,,,,,,,,,,,,,,,,,,,,,,,,,,,,,,,,,,,,,,,,,,,,,,,,,,,,,,,,,,,,,,,,,,,,,,,,,,,,,,,,,,,,,,,003,001,2023-11-12_13h59.29.080,untitled,2023.2.3,59.60516347420131,2023-11-12 13h59.38.604721 +0800,
1,test/leftstar.PNG,space,0,2,2,0,,,,,,,,,,,,,41.95616679999512,,,,,,,,,,,,,,,,41.88540089999151,41.95616679999512,42.40141199999198,42.4014232000045,42.902032899990445,,43.20115359999181,43.20116820000112,44.500527399999555,44.500527399999555,49.25102499999048,space,4.7409825999930035,None,45.30028440000024,,,,,,,,,,,,,,,,,,,,,,,,,,,,,,,,,,,,,,,,,,,,,,,,,,,,,,,,,,,,,,,,,,,,,,,,,,,,,,,,,,,,,,,,,,,,003,001,2023-11-12_13h59.29.080,untitled,2023.2.3,59.60516347420131,2023-11-12 13h59.38.604721 +0800,
9,test/rightstar.PNG,right,0,3,3,3,,,,,,,,,,,,,49.321184500004165,,,,,,,,,,,,,,,,49.251872699998785,49.321184500004165,49.77083379999385,49.77084339999419,50.251087700002245,50.7003670999984,50.53393099999812,50.53394110000227,51.85023440000077,51.85023440000077,52.368333099992014,right,0.502064700005576,None,,,,,,,,,,,,,,,,,,,,,,,,,,,,,,,,,,,,,,,,,,,,,,,,,,,,,,,,,,,,,,,,,,,,,,,,,,,,,,,,,,,,,,,,,,,,,003,001,2023-11-12_13h59.29.080,untitled,2023.2.3,59.60516347420131,2023-11-12 13h59.38.604721 +0800,
8,test/rightstar.PNG,right,0,4,4,1,,,,,,,,,,,,,52.43762149999384,,,,,,,,,,,,,,,,52.368645800001104,52.43762149999384,52.88570329999493,52.88571380000212,53.38422409999475,53.828512299995054,53.667874999999185,53.667885499991826,54.98360720000346,54.98360720000346,55.38517989999673,right,0.3866415000084089,None,,,,,,,,,,,,,,,,,,,,,,,,,,,,,,,,,,,,,,,,,,,,,,,,,,,,,,,,,,,,,,,,,,,,,,,,,,,,,,,,,,,,,,,,,,,,,003,001,2023-11-12_13h59.29.080,untitled,2023.2.3,59.60516347420131,2023-11-12 13h59.38.604721 +0800,
1,test/blank.PNG,space,0,5,5,2,,,,,,,,,,,,,55.454562500002794,,,,,,,,,,,,,,,,55.38551340000413,55.454562500002794,55.900605299990275,55.900626799993915,56.40053089999128,56.73381849999714,56.68408949999139,56.68410139999469,58.079548599998816,58.079548599998816,67.03435489999538,space,8.946045400007279,None,58.88361819999409,,,,,,,,,,,,,,,,,,,,,,,,,,,,,,,,,,,,,,,,,,,,,,,,,,,,,,,,,,,,,,,,,,,,,,,,,,,,,,,,,,,,,,,,,,,,003,001,2023-11-12_13h59.29.080,untitled,2023.2.3,59.60516347420131,2023-11-12 13h59.38.604721 +0800,
,,,,,,,,,,,,,,,,,,,,,,,,,,,,,,,,,,,,,,,,,,,,,,,,,,67.03463749999355,67.0503056000016,67.0503056000016,70.98457439999038,space,3.9319104999885894,None,,,,,,,,,,,,,,,,,,,,,,,,,,,,,,,,,,,,,,,,,,,,,,,,,,,,,,,,,,,,,,,,,,,,,,,,,,,,,,,,,,,,,003,001,2023-11-12_13h59.29.080,untitled,2023.2.3,59.60516347420131,2023-11-12 13h59.38.604721 +0800,
,,,,,,,,,,,,,,,,,,,,,,,,,,,,,,,,,,,,,,,,,,,,,,,,,,,,,,,,,70.98459910000383,71.00044029999117,71.00044029999117,73.26905089999491,space,2.2656407000031322,None,,,,,,,,,,,,,,,,,,,,,,,,,,,,,,,,,,,,,,,,,,,,,,,,,,,,,,,,,,,,,,,,,,,,,,,,,,,,,,003,001,2023-11-12_13h59.29.080,untitled,2023.2.3,59.60516347420131,2023-11-12 13h59.38.604721 +0800,
9,condition_1/leftstar.PNG,left,,,,,0,0,0,19,,,,,,,,,73.34560939999938,,,,,,,,,,,,,,,,,,,,,,,,,,,,,,,,,,,,,,,,,,,,,73.27425469999434,73.34560939999938,73.78461669999524,73.78462720000243,74.28439950000029,74.73350729999947,74.5681912,74.56820149999112,75.8686061000044,75.8686061000044,76.2845801999938,left,1,0.39970009999524336,None,,,,,,,,,,,,,,,,,,,,,,,,,,,,,,,,,,,,,,,,,,,,,,,,,,,,,,,,,,,,,,,003,001,2023-11-12_13h59.29.080,untitled,2023.2.3,59.60516347420131,2023-11-12 13h59.38.604721 +0800,
1,condition_1/rightstar.PNG,space,,,,,0,1,1,4,,,,,,,,,76.35419450000336,,,,,,,,,,,,,,,,,,,,,,,,,,,,,,,,,,,,,,,,,,,,,76.2851440999948,76.35419450000336,76.80196050000086,76.8019723000034,77.30059939999774,77.74414260000049,77.58478130000003,77.58480759999657,78.88367819999985,78.88367819999985,81.05136440000206,space,1,2.157330300004105,None,79.68405379999604,,,,,,,,,,,,,,,,,,,,,,,,,,,,,,,,,,,,,,,,,,,,,,,,,,,,,,,,,,,,,,003,001,2023-11-12_13h59.29.080,untitled,2023.2.3,59.60516347420131,2023-11-12 13h59.38.604721 +0800,
2,condition_1/blank.PNG,space,,,,,0,2,2,9,,,,,,,,,81.12151689999155,,,,,,,,,,,,,,,,,,,,,,,,,,,,,,,,,,,,,,,,,,,,,81.05173130000185,81.12151689999155,81.56765519999317,81.56766719999723,82.05097779999778,82.37196530000074,82.33635080000386,82.33636079999269,83.74099019999267,83.74099019999267,85.08481109999411,space,1,1.3398999000055483,None,84.55249220000405,,,,,,,,,,,,,,,,,,,,,,,,,,,,,,,,,,,,,,,,,,,,,,,,,,,,,,,,,,,,,,003,001,2023-11-12_13h59.29.080,untitled,2023.2.3,59.60516347420131,2023-11-12 13h59.38.604721 +0800,
2,condition_1/rightstar.PNG,space,,,,,0,3,3,13,,,,,,,,,85.1531163000036,,,,,,,,,,,,,,,,,,,,,,,,,,,,,,,,,,,,,,,,,,,,,85.0851968999923,85.1531163000036,85.601141799998,85.60115229999064,86.100821,86.54421279999951,86.38478599999507,86.38479719999305,87.7237363000022,87.7237363000022,89.05103370000143,space,1,1.3214535000006435,None,88.53452220000327,,,,,,,,,,,,,,,,,,,,,,,,,,,,,,,,,,,,,,,,,,,,,,,,,,,,,,,,,,,,,,003,001,2023-11-12_13h59.29.080,untitled,2023.2.3,59.60516347420131,2023-11-12 13h59.38.604721 +0800,
9,condition_1/leftstar.PNG,left,,,,,0,4,4,20,,,,,,,,,89.12039519999234,,,,,,,,,,,,,,,,,,,,,,,,,,,,,,,,,,,,,,,,,,,,,89.05146590000368,89.12039519999234,89.56708029999572,89.56709889999183,90.05064990000392,90.49291719999746,90.33415680000326,90.33416650000436,91.65021849999903,91.65021849999903,92.08641269999498,left,1,0.43229450000217184,None,,,,,,,,,,,,,,,,,,,,,,,,,,,,,,,,,,,,,,,,,,,,,,,,,,,,,,,,,,,,,,,003,001,2023-11-12_13h59.29.080,untitled,2023.2.3,59.60516347420131,2023-11-12 13h59.38.604721 +0800,
9,condition_1/leftstar.PNG,left,,,,,0,5,5,3,,,,,,,,,92.16146999999182,,,,,,,,,,,,,,,,,,,,,,,,,,,,,,,,,,,,,,,,,,,,,92.08678179999697,92.16146999999182,92.60029919999943,92.60030940000433,93.10160029999679,,93.40043829999922,93.40044859999034,94.70014939999965,94.70014939999965,95.16959829999541,left,1,0.4558242000057362,None,,,,,,,,,,,,,,,,,,,,,,,,,,,,,,,,,,,,,,,,,,,,,,,,,,,,,,,,,,,,,,,003,001,2023-11-12_13h59.29.080,untitled,2023.2.3,59.60516347420131,2023-11-12 13h59.38.604721 +0800,
1,condition_1/leftstar.PNG,space,,,,,0,6,6,16,,,,,,,,,95.2396529999969,,,,,,,,,,,,,,,,,,,,,,,,,,,,,,,,,,,,,,,,,,,,,95.17011490000004,95.2396529999969,95.68443979999574,95.68445030000294,96.1835807000025,96.62973319999583,96.46885789999214,96.46886789999553,97.78351680000196,97.78351680000196,98.91815399999905,space,1,1.1191856999939773,None,98.58417519999784,,,,,,,,,,,,,,,,,,,,,,,,,,,,,,,,,,,,,,,,,,,,,,,,,,,,,,,,,,,,,,003,001,2023-11-12_13h59.29.080,untitled,2023.2.3,59.60516347420131,2023-11-12 13h59.38.604721 +0800,
1,condition_1/leftstar.PNG,space,,,,,0,7,7,0,,,,,,,,,98.9883245999954,,,,,,,,,,,,,,,,,,,,,,,,,,,,,,,,,,,,,,,,,,,,,98.91852669999935,98.9883245999954,99.43441109999549,99.4344221999927,99.93399180000415,100.37659139999596,100.2187552999967,100.21876639999391,101.51701480000338,101.51701480000338,102.8184956000041,space,1,1.2985711000073934,None,102.31762760000129,,,,,,,,,,,,,,,,,,,,,,,,,,,,,,,,,,,,,,,,,,,,,,,,,,,,,,,,,,,,,,003,001,2023-11-12_13h59.29.080,untitled,2023.2.3,59.60516347420131,2023-11-12 13h59.38.604721 +0800,
2,condition_1/leftstar.PNG,space,,,,,0,8,8,1,,,,,,,,,102.88873949999106,,,,,,,,,,,,,,,,,,,,,,,,,,,,,,,,,,,,,,,,,,,,,102.8189030999929,102.88873949999106,103.33370529999956,103.33371559999068,103.83359100000234,104.27685209999618,104.1169452000031,104.11695509999117,105.43358080000326,105.43358080000326,106.6176448000042,space,1,1.1756419000012102,None,106.23396280000452,,,,,,,,,,,,,,,,,,,,,,,,,,,,,,,,,,,,,,,,,,,,,,,,,,,,,,,,,,,,,,003,001,2023-11-12_13h59.29.080,untitled,2023.2.3,59.60516347420131,2023-11-12 13h59.38.604721 +0800,
8,condition_1/rightstar.PNG,right,,,,,0,9,9,14,,,,,,,,,106.68836210000154,,,,,,,,,,,,,,,,,,,,,,,,,,,,,,,,,,,,,,,,,,,,,106.61802860000171,106.68836210000154,107.1342791999923,107.1342905999918,107.61773529999482,108.06686039999477,107.90128949999053,107.9013003,109.21688269999868,109.21688269999868,110.10107029999199,right,1,0.8776917000068352,None,110.0168166999938,,,,,,,,,,,,,,,,,,,,,,,,,,,,,,,,,,,,,,,,,,,,,,,,,,,,,,,,,,,,,,003,001,2023-11-12_13h59.29.080,untitled,2023.2.3,59.60516347420131,2023-11-12 13h59.38.604721 +0800,
1,condition_1/leftstar.PNG,space,,,,,0,10,10,22,,,,,,,,,110.18452339999203,,,,,,,,,,,,,,,,,,,,,,,,,,,,,,,,,,,,,,,,,,,,,110.10150000000431,110.18452339999203,110.61718790000305,110.61719920000178,111.11687149999489,111.56696830000146,111.40066389999993,111.4006750999979,112.69992240000283,112.69992240000283,113.93434409999463,space,1,1.219433599995682,None,113.50106100000266,,,,,,,,,,,,,,,,,,,,,,,,,,,,,,,,,,,,,,,,,,,,,,,,,,,,,,,,,,,,,,003,001,2023-11-12_13h59.29.080,untitled,2023.2.3,59.60516347420131,2023-11-12 13h59.38.604721 +0800,
8,condition_1/rightstar.PNG,right,,,,,0,11,11,23,,,,,,,,,114.00298859999748,,,,,,,,,,,,,,,,,,,,,,,,,,,,,,,,,,,,,,,,,,,,,113.93473029999586,114.00298859999748,114.4513433999964,114.45135459999437,114.93529860000126,115.40044830000261,115.23448279999138,115.23449249999248,116.53361329999461,116.53361329999461,117.78441269999894,right,1,1.2458622999984073,None,117.33344370000123,,,,,,,,,,,,,,,,,,,,,,,,,,,,,,,,,,,,,,,,,,,,,,,,,,,,,,,,,,,,,,003,001,2023-11-12_13h59.29.080,untitled,2023.2.3,59.60516347420131,2023-11-12 13h59.38.604721 +0800,
8,condition_1/rightstar.PNG,right,,,,,0,12,12,6,,,,,,,,,117.86761990000377,,,,,,,,,,,,,,,,,,,,,,,,,,,,,,,,,,,,,,,,,,,,,117.78477339999517,117.86761990000377,118.28531229999498,118.28532450000057,118.78401730000041,119.23372859999654,119.06878390000202,119.06880219999584,120.38355169999704,120.38355169999704,120.80183759999636,right,1,0.4093772999913199,None,,,,,,,,,,,,,,,,,,,,,,,,,,,,,,,,,,,,,,,,,,,,,,,,,,,,,,,,,,,,,,,003,001,2023-11-12_13h59.29.080,untitled,2023.2.3,59.60516347420131,2023-11-12 13h59.38.604721 +0800,
2,condition_1/rightstar.PNG,space,,,,,0,13,13,21,,,,,,,,,120.88359219999984,,,,,,,,,,,,,,,,,,,,,,,,,,,,,,,,,,,,,,,,,,,,,120.80220079999708,120.88359219999984,121.31991320000088,121.31993749999674,121.81745829999272,122.2672528999974,122.10233690000314,122.10234669999045,123.4168953000044,123.4168953000044,124.43484099999478,space,1,1.0099073000019416,None,124.217664900003,,,,,,,,,,,,,,,,,,,,,,,,,,,,,,,,,,,,,,,,,,,,,,,,,,,,,,,,,,,,,,003,001,2023-11-12_13h59.29.080,untitled,2023.2.3,59.60516347420131,2023-11-12 13h59.38.604721 +0800,
2,condition_1/rightstar.PNG,space,,,,,0,14,14,5,,,,,,,,,124.51773649999814,,,,,,,,,,,,,,,,,,,,,,,,,,,,,,,,,,,,,,,,,,,,,124.43538830000034,124.51773649999814,124.95126380000147,124.95128059999843,125.45096800000465,125.90040270000463,125.73467560000427,125.73468660000071,127.05036059999838,127.05036059999838,128.23509600000398,right,0,1.1799295999953756,None,127.85094740000204,,,,,,,,,,,,,,,,,,,,,,,,,,,,,,,,,,,,,,,,,,,,,,,,,,,,,,,,,,,,,,003,001,2023-11-12_13h59.29.080,untitled,2023.2.3,59.60516347420131,2023-11-12 13h59.38.604721 +0800,
1,condition_1/rightstar.PNG,space,,,,,0,15,15,12,,,,,,,,,128.30423700000392,,,,,,,,,,,,,,,,,,,,,,,,,,,,,,,,,,,,,,,,,,,,,128.23547529999632,128.30423700000392,128.75071759999264,128.75072729999374,129.2505164000031,129.68748680000135,129.53455509999185,129.53457940000226,130.83349350000208,130.83349350000208,131.7522794999968,space,1,0.9100343999889446,None,131.63357269999688,,,,,,,,,,,,,,,,,,,,,,,,,,,,,,,,,,,,,,,,,,,,,,,,,,,,,,,,,,,,,,003,001,2023-11-12_13h59.29.080,untitled,2023.2.3,59.60516347420131,2023-11-12 13h59.38.604721 +0800,
8,condition_1/leftstar.PNG,left,,,,,0,16,16,2,,,,,,,,,131.82518179999897,,,,,,,,,,,,,,,,,,,,,,,,,,,,,,,,,,,,,,,,,,,,,131.75272419999237,131.82518179999897,132.2690125999943,132.2690244999976,132.76731719999225,133.20521220000228,133.05220279999776,133.05221270000038,134.34984500000428,134.34984500000428,134.81765080000332,left,1,0.45656240000971593,None,,,,,,,,,,,,,,,,,,,,,,,,,,,,,,,,,,,,,,,,,,,,,,,,,,,,,,,,,,,,,,,003,001,2023-11-12_13h59.29.080,untitled,2023.2.3,59.60516347420131,2023-11-12 13h59.38.604721 +0800,
8,condition_1/blank.PNG,space,,,,,0,17,17,24,,,,,,,,,134.891186199995,,,,,,,,,,,,,,,,,,,,,,,,,,,,,,,,,,,,,,,,,,,,,134.8180441000004,134.891186199995,135.31807059999846,135.3180885000038,135.81769569999597,136.1367906999949,136.10125389999303,136.1012641999987,137.51059890000033,137.51059890000033,138.88459570000123,space,1,1.3665242999995826,None,138.31743100000313,,,,,,,,,,,,,,,,,,,,,,,,,,,,,,,,,,,,,,,,,,,,,,,,,,,,,,,,,,,,,,003,001,2023-11-12_13h59.29.080,untitled,2023.2.3,59.60516347420131,2023-11-12 13h59.38.604721 +0800,
2,condition_1/leftstar.PNG,space,,,,,0,18,18,17,,,,,,,,,138.967310299995,,,,,,,,,,,,,,,,,,,,,,,,,,,,,,,,,,,,,,,,,,,,,138.8849540999945,138.967310299995,139.38505499999155,139.38506499999494,139.88450089999242,140.32378999999491,140.1679626999976,140.16797319999023,141.535441,141.535441,142.82204879999335,space,1,1.2736058000009507,None,142.3350131999905,,,,,,,,,,,,,,,,,,,,,,,,,,,,,,,,,,,,,,,,,,,,,,,,,,,,,,,,,,,,,,003,001,2023-11-12_13h59.29.080,untitled,2023.2.3,59.60516347420131,2023-11-12 13h59.38.604721 +0800,
1,condition_1/blank.PNG,space,,,,,0,19,19,8,,,,,,,,,142.9008221999975,,,,,,,,,,,,,,,,,,,,,,,,,,,,,,,,,,,,,,,,,,,,,142.82241349999094,142.9008221999975,143.3348307999986,143.33484119999048,143.8338611999934,144.15065729999333,144.11794109999028,144.11795299999358,145.52962289999414,145.52962289999414,146.0345124000014,space,1,0.5002124999882653,None,,,,,,,,,,,,,,,,,,,,,,,,,,,,,,,,,,,,,,,,,,,,,,,,,,,,,,,,,,,,,,,003,001,2023-11-12_13h59.29.080,untitled,2023.2.3,59.60516347420131,2023-11-12 13h59.38.604721 +0800,
9,condition_1/rightstar.PNG,right,,,,,0,20,20,15,,,,,,,,,146.0994575999939,,,,,,,,,,,,,,,,,,,,,,,,,,,,,,,,,,,,,,,,,,,,,146.03489769999578,146.0994575999939,146.55107119999593,146.55108259999542,147.035375499996,147.48752559999411,147.33508869999787,147.33509939999203,148.67155359999742,148.67155359999742,149.15081589999318,right,1,0.46399219999148045,None,,,,,,,,,,,,,,,,,,,,,,,,,,,,,,,,,,,,,,,,,,,,,,,,,,,,,,,,,,,,,,,003,001,2023-11-12_13h59.29.080,untitled,2023.2.3,59.60516347420131,2023-11-12 13h59.38.604721 +0800,
9,condition_1/blank.PNG,space,,,,,0,21,21,11,,,,,,,,,149.21963409999444,,,,,,,,,,,,,,,,,,,,,,,,,,,,,,,,,,,,,,,,,,,,,149.15132849999645,149.21963409999444,149.6676443000033,149.66765509999823,150.1506151999929,150.48432190000312,150.4349632999947,150.43497649999335,151.8447845000046,151.8447845000046,152.68520929999067,space,1,0.8360971000074642,None,152.65053790000093,,,,,,,,,,,,,,,,,,,,,,,,,,,,,,,,,,,,,,,,,,,,,,,,,,,,,,,,,,,,,,003,001,2023-11-12_13h59.29.080,untitled,2023.2.3,59.60516347420131,2023-11-12 13h59.38.604721 +0800,
8,condition_1/leftstar.PNG,left,,,,,0,22,22,18,,,,,,,,,152.75721989999874,,,,,,,,,,,,,,,,,,,,,,,,,,,,,,,,,,,,,,,,,,,,,152.68562419999216,152.75721989999874,153.2011577999947,153.2011674999958,153.7002657999983,154.1370256999944,153.98396359999606,153.98397750000004,155.32485669999733,155.32485669999733,156.11744849999377,left,1,0.7864314000034938,None,156.1899776999926,,,,,,,,,,,,,,,,,,,,,,,,,,,,,,,,,,,,,,,,,,,,,,,,,,,,,,,,,,,,,,003,001,2023-11-12_13h59.29.080,untitled,2023.2.3,59.60516347420131,2023-11-12 13h59.38.604721 +0800,
8,condition_1/blank.PNG,space,,,,,0,23,23,10,,,,,,,,,156.1899776999926,,,,,,,,,,,,,,,,,,,,,,,,,,,,,,,,,,,,,,,,,,,,,156.11781650000194,156.1899776999926,156.63351420000254,156.63352580000355,157.11812489999284,157.43357700000342,157.401434600004,157.40144479999435,158.79522949999955,158.79522949999955,160.05072919999657,space,1,1.2465812000009464,None,159.60012339999957,,,,,,,,,,,,,,,,,,,,,,,,,,,,,,,,,,,,,,,,,,,,,,,,,,,,,,,,,,,,,,003,001,2023-11-12_13h59.29.080,untitled,2023.2.3,59.60516347420131,2023-11-12 13h59.38.604721 +0800,
9,condition_1/rightstar.PNG,right,,,,,0,24,24,7,,,,,,,,,160.11555699999735,,,,,,,,,,,,,,,,,,,,,,,,,,,,,,,,,,,,,,,,,,,,,160.05116719999933,160.11555699999735,160.5520877999952,160.55209949999698,161.05063410000002,161.48928799999703,161.33427500000107,161.33428539999295,162.68915389999165,162.68915389999165,163.65119340000092,right,1,0.9512653999991016,None,163.50081919999502,,,,,,,,,,,,,,,,,,,,,,,,,,,,,,,,,,,,,,,,,,,,,,,,,,,,,,,,,,,,,,003,001,2023-11-12_13h59.29.080,untitled,2023.2.3,59.60516347420131,2023-11-12 13h59.38.604721 +0800,
8,condition_1/leftstar.PNG,left,,,,,1,0,25,2,,,,,,,,,163.717201499996,,,,,,,,,,,,,,,,,,,,,,,,,,,,,,,,,,,,,,,,,,,,,163.65162049999344,163.717201499996,164.16789040000003,164.16790089999267,164.65052450000076,165.1006142999977,164.93483299999207,164.93484469999385,166.24982139999338,166.24982139999338,167.4343072000047,left,1,1.1712210999976378,None,167.04996049999318,,,,,,,,,,,,,,,,,,,,,,,,,,,,,,,,,,,,,,,,,,,,,,,,,,,,,,,,,,,,,,003,001,2023-11-12_13h59.29.080,untitled,2023.2.3,59.60516347420131,2023-11-12 13h59.38.604721 +0800,
2,condition_1/leftstar.PNG,space,,,,,1,1,26,17,,,,,,,,,167.49944949999917,,,,,,,,,,,,,,,,,,,,,,,,,,,,,,,,,,,,,,,,,,,,,167.43475020000187,167.49944949999917,167.9510767000029,167.9510878000001,168.43453749999753,168.8758933999925,168.71794649999356,168.71795900000143,170.0336427000002,170.0336427000002,171.101628599994,space,1,1.0546275999950012,None,170.83504239999456,,,,,,,,,,,,,,,,,,,,,,,,,,,,,,,,,,,,,,,,,,,,,,,,,,,,,,,,,,,,,,003,001,2023-11-12_13h59.29.080,untitled,2023.2.3,59.60516347420131,2023-11-12 13h59.38.604721 +0800,
1,condition_1/leftstar.PNG,space,,,,,1,2,27,16,,,,,,,,,171.1703095999983,,,,,,,,,,,,,,,,,,,,,,,,,,,,,,,,,,,,,,,,,,,,,171.1019871000026,171.1703095999983,171.61699559999397,171.61700559999736,172.1002021000022,172.53856610000366,172.38421239999298,172.38422269999865,173.69983869999123,173.69983869999123,174.41815420000057,space,1,0.7093083999934606,None,,,,,,,,,,,,,,,,,,,,,,,,,,,,,,,,,,,,,,,,,,,,,,,,,,,,,,,,,,,,,,,003,001,2023-11-12_13h59.29.080,untitled,2023.2.3,59.60516347420131,2023-11-12 13h59.38.604721 +0800,
9,condition_1/blank.PNG,space,,,,,1,3,28,11,,,,,,,,,174.4849014999927,,,,,,,,,,,,,,,,,,,,,,,,,,,,,,,,,,,,,,,,,,,,,174.41907599999104,174.4849014999927,174.93420139999944,174.93421219999436,175.41780739999376,175.73404889999074,175.7013425000041,175.70135200000368,177.11162519999198,177.11162519999198,178.08471909999207,space,1,0.9581413999985671,None,177.91746470000362,,,,,,,,,,,,,,,,,,,,,,,,,,,,,,,,,,,,,,,,,,,,,,,,,,,,,,,,,,,,,,003,001,2023-11-12_13h59.29.080,untitled,2023.2.3,59.60516347420131,2023-11-12 13h59.38.604721 +0800,
8,condition_1/rightstar.PNG,right,,,,,1,4,29,6,,,,,,,,,178.15060670000094,,,,,,,,,,,,,,,,,,,,,,,,,,,,,,,,,,,,,,,,,,,,,178.08507819999068,178.15060670000094,178.6010127000045,178.6010238000017,179.08478789999208,179.5388346999971,179.3840257999982,179.38403570000082,180.7413463999983,180.7413463999983,181.46967259999656,right,1,0.7153066000028048,None,,,,,,,,,,,,,,,,,,,,,,,,,,,,,,,,,,,,,,,,,,,,,,,,,,,,,,,,,,,,,,,003,001,2023-11-12_13h59.29.080,untitled,2023.2.3,59.60516347420131,2023-11-12 13h59.38.604721 +0800,
1,condition_1/leftstar.PNG,space,,,,,1,5,30,0,,,,,,,,,181.53901999999653,,,,,,,,,,,,,,,,,,,,,,,,,,,,,,,,,,,,,,,,,,,,,181.4700332999928,181.53901999999653,181.9846155999985,181.98462770000333,182.48614569999336,,182.7841899999912,182.78420149999147,184.08364929999516,184.08364929999516,185.20204940000258,space,1,1.1113671000057366,None,184.88395999999193,,,,,,,,,,,,,,,,,,,,,,,,,,,,,,,,,,,,,,,,,,,,,,,,,,,,,,,,,,,,,,003,001,2023-11-12_13h59.29.080,untitled,2023.2.3,59.60516347420131,2023-11-12 13h59.38.604721 +0800,
2,condition_1/rightstar.PNG,space,,,,,1,6,31,5,,,,,,,,,185.26912369999627,,,,,,,,,,,,,,,,,,,,,,,,,,,,,,,,,,,,,,,,,,,,,185.20257290000154,185.26912369999627,185.7173053000006,185.71731700000237,186.2175600999908,,186.50268959999084,186.50270040000032,187.81672339999932,187.81672339999932,188.58515729999635,space,1,0.7670274999982212,None,,,,,,,,,,,,,,,,,,,,,,,,,,,,,,,,,,,,,,,,,,,,,,,,,,,,,,,,,,,,,,,003,001,2023-11-12_13h59.29.080,untitled,2023.2.3,59.60516347420131,2023-11-12 13h59.38.604721 +0800,
8,condition_1/rightstar.PNG,right,,,,,1,7,32,23,,,,,,,,,188.6518197999976,,,,,,,,,,,,,,,,,,,,,,,,,,,,,,,,,,,,,,,,,,,,,188.58553250000114,188.6518197999976,189.1016210999951,189.10163170000305,189.60088339999493,190.0407789000019,189.88432869999087,189.8843404999934,191.18306529999245,191.18306529999245,191.7842740999913,right,1,0.5858205999975326,None,,,,,,,,,,,,,,,,,,,,,,,,,,,,,,,,,,,,,,,,,,,,,,,,,,,,,,,,,,,,,,,003,001,2023-11-12_13h59.29.080,untitled,2023.2.3,59.60516347420131,2023-11-12 13h59.38.604721 +0800,
9,condition_1/leftstar.PNG,left,,,,,1,8,33,20,,,,,,,,,191.85479789999954,,,,,,,,,,,,,,,,,,,,,,,,,,,,,,,,,,,,,,,,,,,,,191.7846228999988,191.85479789999954,192.30072899999504,192.300739600003,192.78399749999517,193.2230500000005,193.067913699997,193.06792619999032,194.38352249999298,194.38352249999298,195.2177262000041,left,1,0.8295056000060868,None,195.18345709999267,,,,,,,,,,,,,,,,,,,,,,,,,,,,,,,,,,,,,,,,,,,,,,,,,,,,,,,,,,,,,,003,001,2023-11-12_13h59.29.080,untitled,2023.2.3,59.60516347420131,2023-11-12 13h59.38.604721 +0800,
2,condition_1/rightstar.PNG,space,,,,,1,9,34,13,,,,,,,,,195.285873300003,,,,,,,,,,,,,,,,,,,,,,,,,,,,,,,,,,,,,,,,,,,,,195.2180856999912,195.285873300003,195.733888200004,195.73390039999504,196.21837999999116,196.6708493999904,196.5015687999985,196.5015951999958,197.81707509999978,197.81707509999978,198.88470799999777,space,1,1.0529576000117231,None,198.61759700000403,,,,,,,,,,,,,,,,,,,,,,,,,,,,,,,,,,,,,,,,,,,,,,,,,,,,,,,,,,,,,,003,001,2023-11-12_13h59.29.080,untitled,2023.2.3,59.60516347420131,2023-11-12 13h59.38.604721 +0800,
8,condition_1/blank.PNG,space,,,,,1,10,35,10,,,,,,,,,198.94974199999706,,,,,,,,,,,,,,,,,,,,,,,,,,,,,,,,,,,,,,,,,,,,,198.8850936999952,198.94974199999706,199.38516669999808,199.38517789999605,199.90063699999882,200.2170868999965,200.1838093999977,200.18381869999575,201.5911141999968,201.5911141999968,202.03513370000292,space,1,0.4400713000068208,None,,,,,,,,,,,,,,,,,,,,,,,,,,,,,,,,,,,,,,,,,,,,,,,,,,,,,,,,,,,,,,,003,001,2023-11-12_13h59.29.080,untitled,2023.2.3,59.60516347420131,2023-11-12 13h59.38.604721 +0800,
8,condition_1/rightstar.PNG,right,,,,,1,11,36,14,,,,,,,,,202.10498190000362,,,,,,,,,,,,,,,,,,,,,,,,,,,,,,,,,,,,,,,,,,,,,202.03554929999518,202.10498190000362,202.55074910000258,202.5507682000025,203.03529010000057,203.4999833000038,203.33426400000462,203.33427409999422,204.68804019999516,204.68804019999516,205.3349312999926,right,1,0.6372667000105139,None,,,,,,,,,,,,,,,,,,,,,,,,,,,,,,,,,,,,,,,,,,,,,,,,,,,,,,,,,,,,,,,003,001,2023-11-12_13h59.29.080,untitled,2023.2.3,59.60516347420131,2023-11-12 13h59.38.604721 +0800,
2,condition_1/blank.PNG,space,,,,,1,12,37,9,,,,,,,,,205.40068880000035,,,,,,,,,,,,,,,,,,,,,,,,,,,,,,,,,,,,,,,,,,,,,205.33530189999146,205.40068880000035,205.85103769999114,205.8510491999914,206.35062969999854,206.66683259999263,206.63471729999583,206.63473099999828,208.05165140000463,208.05165140000463,208.68401620000077,space,1,0.6235858000000007,None,,,,,,,,,,,,,,,,,,,,,,,,,,,,,,,,,,,,,,,,,,,,,,,,,,,,,,,,,,,,,,,003,001,2023-11-12_13h59.29.080,untitled,2023.2.3,59.60516347420131,2023-11-12 13h59.38.604721 +0800,
1,condition_1/leftstar.PNG,space,,,,,1,13,38,22,,,,,,,,,208.75096530000155,,,,,,,,,,,,,,,,,,,,,,,,,,,,,,,,,,,,,,,,,,,,,208.68437930000073,208.75096530000155,209.1847940000007,209.1848042999918,209.68438799999421,210.1234237000026,209.9677234999981,209.96773399999074,211.33407409999927,211.33407409999927,212.56779709999682,left,0,1.2266767999972217,None,212.1336278999952,,,,,,,,,,,,,,,,,,,,,,,,,,,,,,,,,,,,,,,,,,,,,,,,,,,,,,,,,,,,,,003,001,2023-11-12_13h59.29.080,untitled,2023.2.3,59.60516347420131,2023-11-12 13h59.38.604721 +0800,
8,condition_1/blank.PNG,space,,,,,1,14,39,24,,,,,,,,,212.63504880000255,,,,,,,,,,,,,,,,,,,,,,,,,,,,,,,,,,,,,,,,,,,,,212.56816850000178,212.63504880000255,213.08372120000422,213.08373129999381,213.56778319999285,213.90077349999046,213.850946999999,213.85095739999088,215.26722559999325,215.26722559999325,215.65072869999858,space,1,0.3748185000004014,None,,,,,,,,,,,,,,,,,,,,,,,,,,,,,,,,,,,,,,,,,,,,,,,,,,,,,,,,,,,,,,,003,001,2023-11-12_13h59.29.080,untitled,2023.2.3,59.60516347420131,2023-11-12 13h59.38.604721 +0800,
1,condition_1/blank.PNG,space,,,,,1,15,40,8,,,,,,,,,215.7159393000038,,,,,,,,,,,,,,,,,,,,,,,,,,,,,,,,,,,,,,,,,,,,,215.65108339999279,215.7159393000038,216.1514853999979,216.1514976000035,216.6504106999928,216.96767080000427,216.9343366999965,216.93434629999683,218.2503197999904,218.2503197999904,219.2346511999931,space,1,0.9799031000002287,None,219.05152789999556,,,,,,,,,,,,,,,,,,,,,,,,,,,,,,,,,,,,,,,,,,,,,,,,,,,,,,,,,,,,,,003,001,2023-11-12_13h59.29.080,untitled,2023.2.3,59.60516347420131,2023-11-12 13h59.38.604721 +0800,
9,condition_1/leftstar.PNG,left,,,,,1,16,41,19,,,,,,,,,219.29990749999706,,,,,,,,,,,,,,,,,,,,,,,,,,,,,,,,,,,,,,,,,,,,,219.23504479999247,219.29990749999706,219.7520485999994,219.7520591999928,220.23481419999734,220.6890551999968,220.53503149999597,220.5350427999947,221.87210039999627,221.87210039999627,223.5010697999969,left,1,1.6262871000071755,None,222.6832485999912,,,,,,,,,,,,,,,,,,,,,,,,,,,,,,,,,,,,,,,,,,,,,,,,,,,,,,,,,,,,,,003,001,2023-11-12_13h59.29.080,untitled,2023.2.3,59.60516347420131,2023-11-12 13h59.38.604721 +0800,
9,condition_1/leftstar.PNG,left,,,,,1,17,42,3,,,,,,,,,223.5678340000013,,,,,,,,,,,,,,,,,,,,,,,,,,,,,,,,,,,,,,,,,,,,,223.5014697000006,223.5678340000013,224.0175900000031,224.01760639999702,224.50095099999453,224.93989520000468,224.78429399999732,224.7843045000045,226.10008150000067,226.10008150000067,226.85407859999395,left,1,0.7404698000027565,None,,,,,,,,,,,,,,,,,,,,,,,,,,,,,,,,,,,,,,,,,,,,,,,,,,,,,,,,,,,,,,,003,001,2023-11-12_13h59.29.080,untitled,2023.2.3,59.60516347420131,2023-11-12 13h59.38.604721 +0800,
9,condition_1/rightstar.PNG,right,,,,,1,18,43,7,,,,,,,,,226.92523579999397,,,,,,,,,,,,,,,,,,,,,,,,,,,,,,,,,,,,,,,,,,,,,226.85443150000356,226.92523579999397,227.36727149999933,227.3672835000034,227.867442200004,228.30487520000315,228.15130109999154,228.15131180000026,229.4665682999912,229.4665682999912,230.46777999999176,right,1,0.9956332000001566,None,230.26796129999275,,,,,,,,,,,,,,,,,,,,,,,,,,,,,,,,,,,,,,,,,,,,,,,,,,,,,,,,,,,,,,003,001,2023-11-12_13h59.29.080,untitled,2023.2.3,59.60516347420131,2023-11-12 13h59.38.604721 +0800,
1,condition_1/rightstar.PNG,space,,,,,1,19,44,12,,,,,,,,,230.53392030000396,,,,,,,,,,,,,,,,,,,,,,,,,,,,,,,,,,,,,,,,,,,,,230.4681513999967,230.53392030000396,230.98411150000175,230.98412539999117,231.46841590000258,231.92712539999047,231.7677840999968,231.76780800000415,233.0668682999967,233.0668682999967,234.65107890000218,space,1,1.5703664000029676,None,233.86760559999675,,,,,,,,,,,,,,,,,,,,,,,,,,,,,,,,,,,,,,,,,,,,,,,,,,,,,,,,,,,,,,003,001,2023-11-12_13h59.29.080,untitled,2023.2.3,59.60516347420131,2023-11-12 13h59.38.604721 +0800,
9,condition_1/rightstar.PNG,right,,,,,1,20,45,15,,,,,,,,,234.71748490000027,,,,,,,,,,,,,,,,,,,,,,,,,,,,,,,,,,,,,,,,,,,,,234.65146880000248,234.71748490000027,235.15138569999544,235.15139649999037,235.65064469999925,236.10018039999704,235.93434429999616,235.93435460000183,237.25061259999347,237.25061259999347,238.23418980000133,right,1,0.97348869999405,None,238.0501127000025,,,,,,,,,,,,,,,,,,,,,,,,,,,,,,,,,,,,,,,,,,,,,,,,,,,,,,,,,,,,,,003,001,2023-11-12_13h59.29.080,untitled,2023.2.3,59.60516347420131,2023-11-12 13h59.38.604721 +0800,
8,condition_1/leftstar.PNG,left,,,,,1,21,46,18,,,,,,,,,238.30477429999155,,,,,,,,,,,,,,,,,,,,,,,,,,,,,,,,,,,,,,,,,,,,,238.23455399999511,238.30477429999155,238.75056200000108,238.75057219999144,239.23493959999178,239.6723939999938,239.51794750000408,239.51795959999436,240.8334496000025,240.8334496000025,242.15218319999985,left,1,1.316945200000191,None,241.63327530000242,,,,,,,,,,,,,,,,,,,,,,,,,,,,,,,,,,,,,,,,,,,,,,,,,,,,,,,,,,,,,,003,001,2023-11-12_13h59.29.080,untitled,2023.2.3,59.60516347420131,2023-11-12 13h59.38.604721 +0800,
1,condition_1/rightstar.PNG,space,,,,,1,22,47,4,,,,,,,,,242.21724699999322,,,,,,,,,,,,,,,,,,,,,,,,,,,,,,,,,,,,,,,,,,,,,242.15261109999847,242.21724699999322,242.6666963000025,242.66670780000277,243.1665856000036,243.61773630000243,243.45060369999555,243.4506154999981,244.7666795999976,244.7666795999976,245.5346642999939,space,1,0.7605855000001611,None,,,,,,,,,,,,,,,,,,,,,,,,,,,,,,,,,,,,,,,,,,,,,,,,,,,,,,,,,,,,,,,003,001,2023-11-12_13h59.29.080,untitled,2023.2.3,59.60516347420131,2023-11-12 13h59.38.604721 +0800,
2,condition_1/leftstar.PNG,space,,,,,1,23,48,1,,,,,,,,,245.6003936999914,,,,,,,,,,,,,,,,,,,,,,,,,,,,,,,,,,,,,,,,,,,,,245.53507030000037,245.6003936999914,246.05039989999204,246.0504099999962,246.5341749999934,246.9723887,246.8175357,246.81754530000035,248.13316899999336,248.13316899999336,249.73465189999843,space,1,1.5945261000015307,None,248.93391189999238,,,,,,,,,,,,,,,,,,,,,,,,,,,,,,,,,,,,,,,,,,,,,,,,,,,,,,,,,,,,,,003,001,2023-11-12_13h59.29.080,untitled,2023.2.3,59.60516347420131,2023-11-12 13h59.38.604721 +0800,
2,condition_1/rightstar.PNG,space,,,,,1,24,49,21,,,,,,,,,249.80379249999532,,,,,,,,,,,,,,,,,,,,,,,,,,,,,,,,,,,,,,,,,,,,,249.73502029999509,249.80379249999532,250.25129810000362,250.2513087999978,250.75069780000194,251.18927619999158,251.03425050000078,251.03426020000188,252.3345823999989,252.3345823999989,253.41805100000056,space,1,1.067186899992521,None,253.13408340000024,,,,,,,,,,,,,,,,,,,,,,,,,,,,,,,,,,,,,,,,,,,,,,,,,,,,,,,,,,,,,,003,001,2023-11-12_13h59.29.080,untitled,2023.2.3,59.60516347420131,2023-11-12 13h59.38.604721 +0800,
,,,,,,,,,,,,,,,,,,,,,,,,,,,,,,,,,,,,,,,,,,,,,,,,,,,,,,,,,,,,,,,,,,,,,,,,,,,,,,,,253.41839439999603,253.43357339999056,253.43357339999056,266.98522519999824,space,13.550215199997183,None,,,,,,,,,,,,,,,,,,,,,,,,,,,,,,,,,,,,,,,,,,,,,,,,,,,,,,,003,001,2023-11-12_13h59.29.080,untitled,2023.2.3,59.60516347420131,2023-11-12 13h59.38.604721 +0800,
,,,,,,,,,,,,,,,,,,,,,,,,,,,,,,,,,,,,,,,,,,,,,,,,,,,,,,,,,,,,,,,,,,,,,,,,,,,,,,,,,,,,,,,266.9852600000013,267.00079249999544,267.00079249999544,292.46812570000475,space,25.465309799998067,None,,,,,,,,,,,,,,,,,,,,,,,,,,,,,,,,,,,,,,,,,,,,,,,,003,001,2023-11-12_13h59.29.080,untitled,2023.2.3,59.60516347420131,2023-11-12 13h59.38.604721 +0800,
8,test2/rightstar.PNG,space,,,,,,,,,0,0,0,1,,,,,292.54160549999506,,,,,,,,,,,,,,,,,,,,,,,,,,,,,,,,,,,,,,,,,,,,,,,,,,,,,,,,,,,,,,,,,,,,,,,,,,,292.47227980000025,292.54160549999506,292.98365639999975,292.98366800000076,293.48427639999136,293.92379580000124,293.76705490000313,293.76706569999806,295.0662922999909,295.0662922999909,295.86745900000096,295.985084999993,right,0.9156015000044135,None,,,,,,,,,,,,,,,,,,,,,,,,,,,,,,,,,003,001,2023-11-12_13h59.29.080,untitled,2023.2.3,59.60516347420131,2023-11-12 13h59.38.604721 +0800,
9,test2/rightstar.PNG,space,,,,,,,,,0,1,1,3,,,,,296.0548076999985,,,,,,,,,,,,,,,,,,,,,,,,,,,,,,,,,,,,,,,,,,,,,,,,,,,,,,,,,,,,,,,,,,,,,,,,,,,295.98552239999117,296.0548076999985,296.5003690000012,296.50038470000436,296.99997679999797,297.43824999999197,297.2847230000043,297.2847332999954,298.6007515999954,298.6007515999954,299.40188409999246,299.4679901999916,right,0.8533389000076568,None,,,,,,,,,,,,,,,,,,,,,,,,,,,,,,,,,003,001,2023-11-12_13h59.29.080,untitled,2023.2.3,59.60516347420131,2023-11-12 13h59.38.604721 +0800,
1,test2/blank.PNG,space,,,,,,,,,0,2,2,2,,,,,299.53416329999163,,,,,,,,,,,,,,,,,,,,,,,,,,,,,,,,,,,,,,,,,,,,,,,,,,,,,,,,,,,,,,,,,,,,,,,,,,,299.4683994999941,299.53416329999163,299.98469979999936,299.98471089999657,300.4837630999973,300.8049330999929,300.76750020000327,300.76752330000454,302.16349510000146,302.16349510000146,302.9665696000011,305.8008034999948,space,3.6293736999941757,None,,,,,,,,,,,,,,,,,,,,,,,,,,,,,,,,,003,001,2023-11-12_13h59.29.080,untitled,2023.2.3,59.60516347420131,2023-11-12 13h59.38.604721 +0800,
8,test2/rightstar.PNG,space,,,,,,,,,0,3,3,5,,,,,305.8677044999931,,,,,,,,,,,,,,,,,,,,,,,,,,,,,,,,,,,,,,,,,,,,,,,,,,,,,,,,,,,,,,,,,,,,,,,,,,,305.8011778999935,305.8677044999931,306.317361399997,306.3173734000011,306.8005754999904,307.25024300000223,307.0844780000043,307.084491799993,308.43870450000395,308.43870450000395,,309.1349679999985,right,0.69534069999645,None,,,,,,,,,,,,,,,,,,,,,,,,,,,,,,,,,003,001,2023-11-12_13h59.29.080,untitled,2023.2.3,59.60516347420131,2023-11-12 13h59.38.604721 +0800,
2,test2/leftstar.PNG,left,,,,,,,,,0,4,4,4,,,,,309.2181933999964,,,,,,,,,,,,,,,,,,,,,,,,,,,,,,,,,,,,,,,,,,,,,,,,,,,,,,,,,,,,,,,,,,,,,,,,,,,309.13537760000327,309.2181933999964,309.6510532999964,309.65106459999515,310.1506117999961,310.5910101999907,310.43423240000266,310.4342430999968,311.733215500004,311.733215500004,312.5341078999918,322.4186233999935,space,10.673558099995716,0.006861800007754937,,,,,,,,,,,,,,,,,,,,,,,,,,,,,,,,,003,001,2023-11-12_13h59.29.080,untitled,2023.2.3,59.60516347420131,2023-11-12 13h59.38.604721 +0800,
1,test2/leftstar.PNG,left,,,,,,,,,0,5,5,0,,,,,322.48440319999645,,,,,,,,,,,,,,,,,,,,,,,,,,,,,,,,,,,,,,,,,,,,,,,,,,,,,,,,,,,,,,,,,,,,,,,,,,,322.4193634999974,322.48440319999645,322.93407069999375,322.93408179999096,323.4348695999943,,323.7339781999908,323.73398969999107,325.0333970999927,325.0333970999927,325.83395879999443,326.5509913999995,left,1.5097357999911765,None,,,,,,,,,,,,,,,,,,,,,,,,,,,,,,,,,003,001,2023-11-12_13h59.29.080,untitled,2023.2.3,59.60516347420131,2023-11-12 13h59.38.604721 +0800,
,,,,,,,,,,,,,,,,,,,,,,,,,,,,,,,,,,,,,,,,,,,,,,,,,,,,,,,,,,,,,,,,,,,,,,,,,,,,,,,,,,,,,,,,,,,,,,,,,,,,,,,,,,,,,326.5512452999974,326.5672327999928,326.5672327999928,327.56696169999486,334.76809749999666,space,8.18991939999978,None,,,,,,,,,,,,,,,,,,,,,,,,,003,001,2023-11-12_13h59.29.080,untitled,2023.2.3,59.60516347420131,2023-11-12 13h59.38.604721 +0800,
,,,,,,,,,,,,,,,,,,,,,,,,,,,,,,,,,,,,,,,,,,,,,,,,,,,,,,,,,,,,,,,,,,,,,,,,,,,,,,,,,,,,,,,,,,,,,,,,,,,,,,,,,,,,,,,,,,,,,334.7681287000014,334.7842712999991,334.7842712999991,335.78393530000176,348.1351608999976,space,13.334529799991287,None,,,,,,,,,,,,,,,,,003,001,2023-11-12_13h59.29.080,untitled,2023.2.3,59.60516347420131,2023-11-12 13h59.38.604721 +0800,
2,condition_2/leftstar.PNG,left,,,,,,,,,,,,,0,0,0,17,348.21816899999976,,,,,,,,,,,,,,,,,,,,,,,,,,,,,,,,,,,,,,,,,,,,,,,,,,,,,,,,,,,,,,,,,,,,,,,,,,,,,,,,,,,,,,,,,,,,,,,,,,,,,,,,,,348.14149549999274,348.21816899999976,348.6506633999961,348.65067550000094,349.15127079999365,349.5894064000022,349.43421589999343,349.43422939999436,350.7680659000034,350.7680659000034,351.25159390000044,left,1,0.4684026000031736,None,,003,001,2023-11-12_13h59.29.080,untitled,2023.2.3,59.60516347420131,2023-11-12 13h59.38.604721 +0800,
1,condition_2/rightstar.PNG,right,,,,,,,,,,,,,0,1,1,21,351.3214219999936,,,,,,,,,,,,,,,,,,,,,,,,,,,,,,,,,,,,,,,,,,,,,,,,,,,,,,,,,,,,,,,,,,,,,,,,,,,,,,,,,,,,,,,,,,,,,,,,,,,,,,,,,,351.2521519000002,351.3214219999936,351.76742619999277,351.7674382999976,352.2684866999916,,352.5672984999983,352.56731080000463,353.8674688000028,353.8674688000028,354.45277609999175,right,1,0.5714915999997174,None,,003,001,2023-11-12_13h59.29.080,untitled,2023.2.3,59.60516347420131,2023-11-12 13h59.38.604721 +0800,
9,condition_2/leftstar.PNG,space,,,,,,,,,,,,,0,2,2,24,354.5177807,,,,,,,,,,,,,,,,,,,,,,,,,,,,,,,,,,,,,,,,,,,,,,,,,,,,,,,,,,,,,,,,,,,,,,,,,,,,,,,,,,,,,,,,,,,,,,,,,,,,,,,,,,354.4532298999984,354.5177807,354.96734599999036,354.9673572000029,355.4669569999969,355.9038419999997,355.75129339999694,355.75130399999034,357.0667151999951,357.0667151999951,357.667715100004,space,1,0.5879803999996511,None,,003,001,2023-11-12_13h59.29.080,untitled,2023.2.3,59.60516347420131,2023-11-12 13h59.38.604721 +0800,
9,condition_2/blank.PNG,space,,,,,,,,,,,,,0,3,3,11,357.7332636999927,,,,,,,,,,,,,,,,,,,,,,,,,,,,,,,,,,,,,,,,,,,,,,,,,,,,,,,,,,,,,,,,,,,,,,,,,,,,,,,,,,,,,,,,,,,,,,,,,,,,,,,,,,357.6680941999948,357.7332636999927,358.183769700001,358.1837832000019,358.66709669999545,358.98345139999583,358.9507616000046,358.9507747000025,360.36737199999334,360.36737199999334,360.58487649999734,space,1,0.20114669999748003,None,,003,001,2023-11-12_13h59.29.080,untitled,2023.2.3,59.60516347420131,2023-11-12 13h59.38.604721 +0800,
8,condition_2/rightstar.PNG,space,,,,,,,,,,,,,0,4,4,6,360.6515642000013,,,,,,,,,,,,,,,,,,,,,,,,,,,,,,,,,,,,,,,,,,,,,,,,,,,,,,,,,,,,,,,,,,,,,,,,,,,,,,,,,,,,,,,,,,,,,,,,,,,,,,,,,,360.5852681999968,360.6515642000013,361.1011093999987,361.10112330000266,361.5840401000023,362.0251453999954,361.8675480999955,361.86755979999725,363.2370426999987,363.2370426999987,364.15204699999595,space,1,0.9018516999931308,None,364.05114850000245,003,001,2023-11-12_13h59.29.080,untitled,2023.2.3,59.60516347420131,2023-11-12 13h59.38.604721 +0800,
2,condition_2/rightstar.PNG,right,,,,,,,,,,,,,0,5,5,13,364.2228841000033,,,,,,,,,,,,,,,,,,,,,,,,,,,,,,,,,,,,,,,,,,,,,,,,,,,,,,,,,,,,,,,,,,,,,,,,,,,,,,,,,,,,,,,,,,,,,,,,,,,,,,,,,,364.1524939999945,364.2228841000033,364.66742610000074,364.6674378000025,365.16868960000284,,365.4669883000024,365.46700819999387,366.76675989999785,366.76675989999785,367.71784019999905,right,1,0.94935439999972,None,367.5674134000001,003,001,2023-11-12_13h59.29.080,untitled,2023.2.3,59.60516347420131,2023-11-12 13h59.38.604721 +0800,
9,condition_2/leftstar.PNG,space,,,,,,,,,,,,,0,6,6,19,367.79155219999666,,,,,,,,,,,,,,,,,,,,,,,,,,,,,,,,,,,,,,,,,,,,,,,,,,,,,,,,,,,,,,,,,,,,,,,,,,,,,,,,,,,,,,,,,,,,,,,,,,,,,,,,,,367.71833139999944,367.79155219999666,368.21826280000096,368.21827470000426,368.7172125999932,369.16720989999885,369.0010751999944,369.00108940000064,370.33368840000185,370.33368840000185,371.3844739999913,space,1,1.0489251999970293,None,371.13349480000034,003,001,2023-11-12_13h59.29.080,untitled,2023.2.3,59.60516347420131,2023-11-12 13h59.38.604721 +0800,
1,condition_2/leftstar.PNG,left,,,,,,,,,,,,,0,7,7,0,371.44981109999935,,,,,,,,,,,,,,,,,,,,,,,,,,,,,,,,,,,,,,,,,,,,,,,,,,,,,,,,,,,,,,,,,,,,,,,,,,,,,,,,,,,,,,,,,,,,,,,,,,,,,,,,,,371.38486989999365,371.44981109999935,371.90040329999465,371.90041689999634,372.4013205999945,372.8419509999949,372.68415339999774,372.68416499999876,374.0006129999965,374.0006129999965,374.88463899999624,left,1,0.8732116000028327,None,374.8005553999974,003,001,2023-11-12_13h59.29.080,untitled,2023.2.3,59.60516347420131,2023-11-12 13h59.38.604721 +0800,
9,condition_2/rightstar.PNG,space,,,,,,,,,,,,,0,8,8,7,374.9501267000014,,,,,,,,,,,,,,,,,,,,,,,,,,,,,,,,,,,,,,,,,,,,,,,,,,,,,,,,,,,,,,,,,,,,,,,,,,,,,,,,,,,,,,,,,,,,,,,,,,,,,,,,,,374.8850239000021,374.9501267000014,375.39998529999866,375.39999669999816,375.90006630000426,376.33760159999656,376.183772999997,376.1837940999976,377.5012002000003,377.5012002000003,378.66773669999384,right,0,1.1550281000090763,None,378.30179349999526,003,001,2023-11-12_13h59.29.080,untitled,2023.2.3,59.60516347420131,2023-11-12 13h59.38.604721 +0800,
8,condition_2/leftstar.PNG,space,,,,,,,,,,,,,0,9,9,18,378.7377903000015,,,,,,,,,,,,,,,,,,,,,,,,,,,,,,,,,,,,,,,,,,,,,,,,,,,,,,,,,,,,,,,,,,,,,,,,,,,,,,,,,,,,,,,,,,,,,,,,,,,,,,,,,,378.66813789999287,378.7377903000015,379.18379670000286,379.18381319999753,379.66714589999174,380.1187263000029,379.95096800000465,379.95098149999103,381.2831189999997,381.2831189999997,381.95137799999793,space,1,0.6538014999969164,None,,003,001,2023-11-12_13h59.29.080,untitled,2023.2.3,59.60516347420131,2023-11-12 13h59.38.604721 +0800,
2,condition_2/blank.PNG,space,,,,,,,,,,,,,0,10,10,20,382.01795870000205,,,,,,,,,,,,,,,,,,,,,,,,,,,,,,,,,,,,,,,,,,,,,,,,,,,,,,,,,,,,,,,,,,,,,,,,,,,,,,,,,,,,,,,,,,,,,,,,,,,,,,,,,,381.9518246999942,382.01795870000205,382.4666744999995,382.4666870999936,382.9668604000035,383.28377389999514,383.2516775999975,383.25168859999394,384.6607059999951,384.6607059999951,385.88399819999177,space,1,1.2121989000006579,None,385.46654470000067,003,001,2023-11-12_13h59.29.080,untitled,2023.2.3,59.60516347420131,2023-11-12 13h59.38.604721 +0800,
8,condition_2/rightstar.PNG,space,,,,,,,,,,,,,0,11,11,23,385.94991209999716,,,,,,,,,,,,,,,,,,,,,,,,,,,,,,,,,,,,,,,,,,,,,,,,,,,,,,,,,,,,,,,,,,,,,,,,,,,,,,,,,,,,,,,,,,,,,,,,,,,,,,,,,,385.88440029999765,385.94991209999716,386.40063619999273,386.4006573999941,386.88403049999033,387.3206774999999,387.16716270000325,387.1671730999951,388.5343914999976,388.5343914999976,389.43521090000286,right,0,0.8991316000028746,None,389.33437100000447,003,001,2023-11-12_13h59.29.080,untitled,2023.2.3,59.60516347420131,2023-11-12 13h59.38.604721 +0800,
1,condition_2/blank.PNG,space,,,,,,,,,,,,,0,12,12,8,389.50517459999537,,,,,,,,,,,,,,,,,,,,,,,,,,,,,,,,,,,,,,,,,,,,,,,,,,,,,,,,,,,,,,,,,,,,,,,,,,,,,,,,,,,,,,,,,,,,,,,,,,,,,,,,,,389.43575599999167,389.50517459999537,389.9500088999921,389.9500207999954,390.449999199991,390.7840628999984,390.73363220000465,390.7336442999949,392.1419542999938,392.1419542999938,392.88460099999793,space,1,0.7316105000063544,None,,003,001,2023-11-12_13h59.29.080,untitled,2023.2.3,59.60516347420131,2023-11-12 13h59.38.604721 +0800,
1,condition_2/rightstar.PNG,right,,,,,,,,,,,,,0,13,13,4,392.9498783000017,,,,,,,,,,,,,,,,,,,,,,,,,,,,,,,,,,,,,,,,,,,,,,,,,,,,,,,,,,,,,,,,,,,,,,,,,,,,,,,,,,,,,,,,,,,,,,,,,,,,,,,,,,392.8849824999925,392.9498783000017,393.400496000002,393.4005080999923,393.90028200000233,,394.18548600000213,394.1854985999962,395.5502348000009,395.5502348000009,396.117957399998,right,1,0.5512910999968881,None,,003,001,2023-11-12_13h59.29.080,untitled,2023.2.3,59.60516347420131,2023-11-12 13h59.38.604721 +0800,
2,condition_2/leftstar.PNG,left,,,,,,,,,,,,,0,14,14,1,396.2010302999988,,,,,,,,,,,,,,,,,,,,,,,,,,,,,,,,,,,,,,,,,,,,,,,,,,,,,,,,,,,,,,,,,,,,,,,,,,,,,,,,,,,,,,,,,,,,,,,,,,,,,,,,,,396.1183688000019,396.2010302999988,396.63376949999656,396.6337816000014,397.13434340000094,397.57214039999235,397.4178494999942,397.41786339999817,398.73328489999403,398.73328489999403,399.135148699992,left,1,0.3874227000051178,None,,003,001,2023-11-12_13h59.29.080,untitled,2023.2.3,59.60516347420131,2023-11-12 13h59.38.604721 +0800,
8,condition_2/blank.PNG,space,,,,,,,,,,,,,0,15,15,10,399.2043333000038,,,,,,,,,,,,,,,,,,,,,,,,,,,,,,,,,,,,,,,,,,,,,,,,,,,,,,,,,,,,,,,,,,,,,,,,,,,,,,,,,,,,,,,,,,,,,,,,,,,,,,,,,,399.1355671999918,399.2043333000038,399.65033009999024,399.6503420999943,400.13469310000073,400.4496228999924,400.41804489999777,400.41805629999726,401.8437325999985,401.8437325999985,401.9177273999958,space,1,0.06025160000717733,None,,003,001,2023-11-12_13h59.29.080,untitled,2023.2.3,59.60516347420131,2023-11-12 13h59.38.604721 +0800,
2,condition_2/leftstar.PNG,left,,,,,,,,,,,,,0,16,16,22,401.9840033999935,,,,,,,,,,,,,,,,,,,,,,,,,,,,,,,,,,,,,,,,,,,,,,,,,,,,,,,,,,,,,,,,,,,,,,,,,,,,,,,,,,,,,,,,,,,,,,,,,,,,,,,,,,401.9181125000032,401.9840033999935,402.43316459999187,402.4331785999966,402.9331192999962,,403.2181821999984,403.2181958000001,404.5672477999906,404.5672477999906,404.93405329999223,left,1,0.3546286000055261,None,,003,001,2023-11-12_13h59.29.080,untitled,2023.2.3,59.60516347420131,2023-11-12 13h59.38.604721 +0800,
1,condition_2/rightstar.PNG,right,,,,,,,,,,,,,0,17,17,12,405.0025022000045,,,,,,,,,,,,,,,,,,,,,,,,,,,,,,,,,,,,,,,,,,,,,,,,,,,,,,,,,,,,,,,,,,,,,,,,,,,,,,,,,,,,,,,,,,,,,,,,,,,,,,,,,,404.9344348000013,405.0025022000045,405.4344351000036,405.4344467000046,405.9338953999977,406.38373590000265,406.2183187999908,406.21833059999335,407.53316419999464,407.53316419999464,407.984561499994,right,1,0.4443852000113111,None,,003,001,2023-11-12_13h59.29.080,untitled,2023.2.3,59.60516347420131,2023-11-12 13h59.38.604721 +0800,
8,condition_2/leftstar.PNG,space,,,,,,,,,,,,,0,18,18,2,408.06713719999243,,,,,,,,,,,,,,,,,,,,,,,,,,,,,,,,,,,,,,,,,,,,,,,,,,,,,,,,,,,,,,,,,,,,,,,,,,,,,,,,,,,,,,,,,,,,,,,,,,,,,,,,,,407.98502379999263,408.06713719999243,408.5006970999966,408.50071029999526,409.0001742000022,409.4372330000042,409.28413079999154,409.2841420999903,410.5999337999965,410.5999337999965,411.1686905999959,left,0,0.5555453999986639,None,,003,001,2023-11-12_13h59.29.080,untitled,2023.2.3,59.60516347420131,2023-11-12 13h59.38.604721 +0800,
8,condition_2/rightstar.PNG,space,,,,,,,,,,,,,0,19,19,14,411.2421861000039,,,,,,,,,,,,,,,,,,,,,,,,,,,,,,,,,,,,,,,,,,,,,,,,,,,,,,,,,,,,,,,,,,,,,,,,,,,,,,,,,,,,,,,,,,,,,,,,,,,,,,,,,,411.1691225999966,411.2421861000039,411.6835652000009,411.6835778999957,412.1845941999927,,412.48400719999336,412.4840197000012,413.78323020000244,413.78323020000244,414.63457239999843,space,1,0.8456130000122357,None,414.58406529999047,003,001,2023-11-12_13h59.29.080,untitled,2023.2.3,59.60516347420131,2023-11-12 13h59.38.604721 +0800,
9,condition_2/leftstar.PNG,space,,,,,,,,,,,,,0,20,20,3,414.703199399999,,,,,,,,,,,,,,,,,,,,,,,,,,,,,,,,,,,,,,,,,,,,,,,,,,,,,,,,,,,,,,,,,,,,,,,,,,,,,,,,,,,,,,,,,,,,,,,,,,,,,,,,,,414.63494589999027,414.703199399999,415.15116539999144,415.1511776999978,415.65047769999364,416.1004687999957,415.93443140000454,415.934442400001,417.23367089999374,417.23367089999374,417.9843703999941,space,1,0.7473463999922387,None,,003,001,2023-11-12_13h59.29.080,untitled,2023.2.3,59.60516347420131,2023-11-12 13h59.38.604721 +0800,
2,condition_2/blank.PNG,space,,,,,,,,,,,,,0,21,21,9,418.06703910000215,,,,,,,,,,,,,,,,,,,,,,,,,,,,,,,,,,,,,,,,,,,,,,,,,,,,,,,,,,,,,,,,,,,,,,,,,,,,,,,,,,,,,,,,,,,,,,,,,,,,,,,,,,417.9847582999937,418.06703910000215,418.5014407999988,418.5014550999913,418.98461689999385,419.2999309000006,419.26762260000396,419.2676342999912,420.69487500000105,420.69487500000105,421.71756319999986,space,1,1.0154566999990493,None,421.4997483000043,003,001,2023-11-12_13h59.29.080,untitled,2023.2.3,59.60516347420131,2023-11-12 13h59.38.604721 +0800,
1,condition_2/leftstar.PNG,left,,,,,,,,,,,,,0,22,22,16,421.7844017000025,,,,,,,,,,,,,,,,,,,,,,,,,,,,,,,,,,,,,,,,,,,,,,,,,,,,,,,,,,,,,,,,,,,,,,,,,,,,,,,,,,,,,,,,,,,,,,,,,,,,,,,,,,421.71796569999424,421.7844017000025,422.23409650000394,422.2341099999903,422.7336166000023,423.17041239999526,423.017749599996,423.017760799994,424.3674563999957,424.3674563999957,424.8336823999998,left,1,0.45987069999682717,None,,003,001,2023-11-12_13h59.29.080,untitled,2023.2.3,59.60516347420131,2023-11-12 13h59.38.604721 +0800,
9,condition_2/rightstar.PNG,space,,,,,,,,,,,,,0,23,23,15,424.9070514999912,,,,,,,,,,,,,,,,,,,,,,,,,,,,,,,,,,,,,,,,,,,,,,,,,,,,,,,,,,,,,,,,,,,,,,,,,,,,,,,,,,,,,,,,,,,,,,,,,,,,,,,,,,424.8340448999952,424.9070514999912,425.3349053999991,425.3349199999939,425.83354409999447,426.283271399996,426.11737330000324,426.11738389999664,427.4331897999946,427.4331897999946,428.650939500003,space,1,1.202811199997086,None,428.23410739999963,003,001,2023-11-12_13h59.29.080,untitled,2023.2.3,59.60516347420131,2023-11-12 13h59.38.604721 +0800,
2,condition_2/rightstar.PNG,left,,,,,,,,,,,,,0,24,24,5,428.71753290000197,,,,,,,,,,,,,,,,,,,,,,,,,,,,,,,,,,,,,,,,,,,,,,,,,,,,,,,,,,,,,,,,,,,,,,,,,,,,,,,,,,,,,,,,,,,,,,,,,,,,,,,,,,428.6513833999925,428.71753290000197,429.1675021999981,429.1675145999907,429.6506978999969,430.08838200000173,429.9345476000017,429.9345592000027,431.2500433999958,431.2500433999958,431.70151949999854,right,0,0.44933480001054704,None,,003,001,2023-11-12_13h59.29.080,untitled,2023.2.3,59.60516347420131,2023-11-12 13h59.38.604721 +0800,
2,condition_2/blank.PNG,space,,,,,,,,,,,,,1,0,25,20,431.76997850000043,,,,,,,,,,,,,,,,,,,,,,,,,,,,,,,,,,,,,,,,,,,,,,,,,,,,,,,,,,,,,,,,,,,,,,,,,,,,,,,,,,,,,,,,,,,,,,,,,,,,,,,,,,431.70209039999463,431.76997850000043,432.2169861000002,432.2169988999958,432.71787069999846,433.0504940999963,433.001371499995,433.0013844999921,434.40872999999556,434.40872999999556,435.20177319999493,space,1,0.7905348000058439,None,435.26906389999203,003,001,2023-11-12_13h59.29.080,untitled,2023.2.3,59.60516347420131,2023-11-12 13h59.38.604721 +0800,
1,condition_2/blank.PNG,space,,,,,,,,,,,,,1,1,26,8,435.26906389999203,,,,,,,,,,,,,,,,,,,,,,,,,,,,,,,,,,,,,,,,,,,,,,,,,,,,,,,,,,,,,,,,,,,,,,,,,,,,,,,,,,,,,,,,,,,,,,,,,,,,,,,,,,435.2021526000026,435.26906389999203,435.7170533000026,435.7170649000036,436.21694529999513,436.53316029999405,436.5009977000009,436.50100920000114,437.81662369999685,437.81662369999685,439.0510798000032,space,1,1.224511500011431,None,438.6170529999945,003,001,2023-11-12_13h59.29.080,untitled,2023.2.3,59.60516347420131,2023-11-12 13h59.38.604721 +0800,
1,condition_2/rightstar.PNG,right,,,,,,,,,,,,,1,2,27,4,439.13458899999387,,,,,,,,,,,,,,,,,,,,,,,,,,,,,,,,,,,,,,,,,,,,,,,,,,,,,,,,,,,,,,,,,,,,,,,,,,,,,,,,,,,,,,,,,,,,,,,,,,,,,,,,,,439.0515006999922,439.13458899999387,439.5676173999964,439.56763029999274,440.0668134000007,440.50463159999344,440.3507485000009,440.35076169999957,441.71642850000353,441.71642850000353,442.1681794000033,right,1,0.4502372999995714,None,,003,001,2023-11-12_13h59.29.080,untitled,2023.2.3,59.60516347420131,2023-11-12 13h59.38.604721 +0800,
9,condition_2/rightstar.PNG,space,,,,,,,,,,,,,1,3,28,15,442.23500400000194,,,,,,,,,,,,,,,,,,,,,,,,,,,,,,,,,,,,,,,,,,,,,,,,,,,,,,,,,,,,,,,,,,,,,,,,,,,,,,,,,,,,,,,,,,,,,,,,,,,,,,,,,,442.16864419999183,442.23500400000194,442.68344459999935,442.68345820000104,443.16707779999706,443.6042219999945,443.4502407999971,443.4502533999912,444.78320219999296,444.78320219999296,445.28498850000324,right,0,0.49380769999697804,None,,003,001,2023-11-12_13h59.29.080,untitled,2023.2.3,59.60516347420131,2023-11-12 13h59.38.604721 +0800,
8,condition_2/leftstar.PNG,space,,,,,,,,,,,,,1,4,29,18,445.3493118999904,,,,,,,,,,,,,,,,,,,,,,,,,,,,,,,,,,,,,,,,,,,,,,,,,,,,,,,,,,,,,,,,,,,,,,,,,,,,,,,,,,,,,,,,,,,,,,,,,,,,,,,,,,445.2853657999949,445.3493118999904,445.80053919999045,445.8005511999945,446.30058819999977,446.7435128999932,446.5845832999912,446.584594999993,447.8999014000001,447.8999014000001,450.5178109999979,space,1,2.6012951000011526,None,448.7002369999973,003,001,2023-11-12_13h59.29.080,untitled,2023.2.3,59.60516347420131,2023-11-12 13h59.38.604721 +0800,
2,condition_2/blank.PNG,space,,,,,,,,,,,,,1,5,30,9,450.5871144999983,,,,,,,,,,,,,,,,,,,,,,,,,,,,,,,,,,,,,,,,,,,,,,,,,,,,,,,,,,,,,,,,,,,,,,,,,,,,,,,,,,,,,,,,,,,,,,,,,,,,,,,,,,450.5182465999969,450.5871144999983,451.0334637999913,451.03347690000373,451.533697699997,451.8489647999959,451.81725979999464,451.81727139999566,453.228583899996,453.228583899996,455.18478119999054,space,1,1.9416842000064207,None,454.0348043999984,003,001,2023-11-12_13h59.29.080,untitled,2023.2.3,59.60516347420131,2023-11-12 13h59.38.604721 +0800,
2,condition_2/rightstar.PNG,left,,,,,,,,,,,,,1,6,31,5,455.25222219999705,,,,,,,,,,,,,,,,,,,,,,,,,,,,,,,,,,,,,,,,,,,,,,,,,,,,,,,,,,,,,,,,,,,,,,,,,,,,,,,,,,,,,,,,,,,,,,,,,,,,,,,,,,455.1851533000008,455.25222219999705,455.7005363999924,455.700551499991,456.2004157999909,456.64987870000186,456.4841910999967,456.4842054000037,457.85000829999626,457.85000829999626,458.41779989999486,right,0,0.559745299993665,None,,003,001,2023-11-12_13h59.29.080,untitled,2023.2.3,59.60516347420131,2023-11-12 13h59.38.604721 +0800,
1,condition_2/leftstar.PNG,left,,,,,,,,,,,,,1,7,32,16,458.4824036999926,,,,,,,,,,,,,,,,,,,,,,,,,,,,,,,,,,,,,,,,,,,,,,,,,,,,,,,,,,,,,,,,,,,,,,,,,,,,,,,,,,,,,,,,,,,,,,,,,,,,,,,,,,458.41816590000235,458.4824036999926,458.9349149999907,458.9349274999986,459.4337760999915,459.87037509999936,459.71784769999795,459.71785859999363,461.0331901000027,461.0331901000027,461.50067949999357,left,1,0.4646618000115268,None,,003,001,2023-11-12_13h59.29.080,untitled,2023.2.3,59.60516347420131,2023-11-12 13h59.38.604721 +0800,
8,condition_2/blank.PNG,space,,,,,,,,,,,,,1,8,33,10,461.57032569999865,,,,,,,,,,,,,,,,,,,,,,,,,,,,,,,,,,,,,,,,,,,,,,,,,,,,,,,,,,,,,,,,,,,,,,,,,,,,,,,,,,,,,,,,,,,,,,,,,,,,,,,,,,461.50111050000123,461.57032569999865,462.01727309999114,462.0172848999937,462.50036239999463,462.8160241000005,462.7845171999943,462.7845296000014,464.19971010000154,464.19971010000154,465.0345229999948,space,1,0.8263823000015691,None,465.00019419999444,003,001,2023-11-12_13h59.29.080,untitled,2023.2.3,59.60516347420131,2023-11-12 13h59.38.604721 +0800,
1,condition_2/leftstar.PNG,left,,,,,,,,,,,,,1,9,34,0,465.1011967999948,,,,,,,,,,,,,,,,,,,,,,,,,,,,,,,,,,,,,,,,,,,,,,,,,,,,,,,,,,,,,,,,,,,,,,,,,,,,,,,,,,,,,,,,,,,,,,,,,,,,,,,,,,465.0349106999929,465.1011967999948,465.5510656999977,465.5510770999972,466.05019249999896,466.4859732999903,466.3338727999944,466.3338839999924,467.68625389999943,467.68625389999943,468.51768679999805,left,1,0.8239665000000969,None,468.5001392999984,003,001,2023-11-12_13h59.29.080,untitled,2023.2.3,59.60516347420131,2023-11-12 13h59.38.604721 +0800,
8,condition_2/leftstar.PNG,space,,,,,,,,,,,,,1,10,35,2,468.5857607999933,,,,,,,,,,,,,,,,,,,,,,,,,,,,,,,,,,,,,,,,,,,,,,,,,,,,,,,,,,,,,,,,,,,,,,,,,,,,,,,,,,,,,,,,,,,,,,,,,,,,,,,,,,468.51804840000113,468.5857607999933,469.0337737999944,469.0337858999992,469.516380400004,469.9538018000021,469.80091219999304,469.80093909999414,471.11601109999174,471.11601109999174,472.5350790999946,space,1,1.4181996999977855,None,471.9167320999986,003,001,2023-11-12_13h59.29.080,untitled,2023.2.3,59.60516347420131,2023-11-12 13h59.38.604721 +0800,
9,condition_2/blank.PNG,space,,,,,,,,,,,,,1,11,36,11,472.601035899992,,,,,,,,,,,,,,,,,,,,,,,,,,,,,,,,,,,,,,,,,,,,,,,,,,,,,,,,,,,,,,,,,,,,,,,,,,,,,,,,,,,,,,,,,,,,,,,,,,,,,,,,,,472.5354840999935,472.601035899992,473.05154459999176,473.0515577000042,473.5496933999966,473.86660850000044,473.83383129999856,473.83384359999036,475.2496672999987,475.2496672999987,476.967264299994,space,1,1.7095598000014434,None,476.0515477000008,003,001,2023-11-12_13h59.29.080,untitled,2023.2.3,59.60516347420131,2023-11-12 13h59.38.604721 +0800,
9,condition_2/leftstar.PNG,space,,,,,,,,,,,,,1,12,37,24,477.03307059999497,,,,,,,,,,,,,,,,,,,,,,,,,,,,,,,,,,,,,,,,,,,,,,,,,,,,,,,,,,,,,,,,,,,,,,,,,,,,,,,,,,,,,,,,,,,,,,,,,,,,,,,,,,476.96779389999574,477.03307059999497,477.48351649999677,477.4835289000039,477.9667866999953,478.41691709999577,478.2520871000015,478.2521007000032,479.61711859999923,479.61711859999923,480.60034219999216,space,1,0.970338900006027,None,480.4171361000044,003,001,2023-11-12_13h59.29.080,untitled,2023.2.3,59.60516347420131,2023-11-12 13h59.38.604721 +0800,
9,condition_2/rightstar.PNG,space,,,,,,,,,,,,,1,13,38,7,480.6835662999947,,,,,,,,,,,,,,,,,,,,,,,,,,,,,,,,,,,,,,,,,,,,,,,,,,,,,,,,,,,,,,,,,,,,,,,,,,,,,,,,,,,,,,,,,,,,,,,,,,,,,,,,,,480.6008972999989,480.6835662999947,481.1007680000039,481.100781000001,481.6009832999989,482.05027559999144,481.88478150000446,481.8848035999981,483.19960079999873,483.19960079999873,483.53413040000305,space,1,0.3290482000011252,None,,003,001,2023-11-12_13h59.29.080,untitled,2023.2.3,59.60516347420131,2023-11-12 13h59.38.604721 +0800,
2,condition_2/leftstar.PNG,left,,,,,,,,,,,,,1,14,39,17,483.5998145999911,,,,,,,,,,,,,,,,,,,,,,,,,,,,,,,,,,,,,,,,,,,,,,,,,,,,,,,,,,,,,,,,,,,,,,,,,,,,,,,,,,,,,,,,,,,,,,,,,,,,,,,,,,483.53448509999726,483.5998145999911,484.05042509999475,484.05043920000026,484.53370559999894,484.98307699999714,484.8178055000026,484.81781729999057,486.1336474999989,486.1336474999989,486.9505960999959,left,1,0.8069153999967966,None,486.9330290999933,003,001,2023-11-12_13h59.29.080,untitled,2023.2.3,59.60516347420131,2023-11-12 13h59.38.604721 +0800,
8,condition_2/rightstar.PNG,space,,,,,,,,,,,,,1,15,40,23,487.01512250000087,,,,,,,,,,,,,,,,,,,,,,,,,,,,,,,,,,,,,,,,,,,,,,,,,,,,,,,,,,,,,,,,,,,,,,,,,,,,,,,,,,,,,,,,,,,,,,,,,,,,,,,,,,486.9510272999905,487.01512250000087,487.4681382999988,487.46815109999443,487.950642900003,488.38895039999625,488.2345553999912,488.23457309999503,489.54973210000026,489.54973210000026,490.48597130000417,space,1,0.9270891999913147,None,490.35062409999955,003,001,2023-11-12_13h59.29.080,untitled,2023.2.3,59.60516347420131,2023-11-12 13h59.38.604721 +0800,
2,condition_2/leftstar.PNG,left,,,,,,,,,,,,,1,16,41,22,490.5673397999926,,,,,,,,,,,,,,,,,,,,,,,,,,,,,,,,,,,,,,,,,,,,,,,,,,,,,,,,,,,,,,,,,,,,,,,,,,,,,,,,,,,,,,,,,,,,,,,,,,,,,,,,,,490.4864293999999,490.5673397999926,491.00021600000036,491.0002278000029,491.500208700003,491.9424619999918,491.78574500000104,491.78592290000233,493.1005737999949,493.1005737999949,493.8178878000035,left,1,0.7009187999938149,None,,003,001,2023-11-12_13h59.29.080,untitled,2023.2.3,59.60516347420131,2023-11-12 13h59.38.604721 +0800,
8,condition_2/rightstar.PNG,space,,,,,,,,,,,,,1,17,42,6,493.88435729999037,,,,,,,,,,,,,,,,,,,,,,,,,,,,,,,,,,,,,,,,,,,,,,,,,,,,,,,,,,,,,,,,,,,,,,,,,,,,,,,,,,,,,,,,,,,,,,,,,,,,,,,,,,493.81825019999815,493.88435729999037,494.3339898999984,494.33400200000324,494.8333130999963,495.2741332000005,495.11718659999315,495.11720039999636,496.43354009999894,496.43354009999894,497.2509890999936,space,1,0.8138509999989765,None,497.23390979999385,003,001,2023-11-12_13h59.29.080,untitled,2023.2.3,59.60516347420131,2023-11-12 13h59.38.604721 +0800,
1,condition_2/rightstar.PNG,right,,,,,,,,,,,,,1,18,43,12,497.3163371999981,,,,,,,,,,,,,,,,,,,,,,,,,,,,,,,,,,,,,,,,,,,,,,,,,,,,,,,,,,,,,,,,,,,,,,,,,,,,,,,,,,,,,,,,,,,,,,,,,,,,,,,,,,497.251548500004,497.3163371999981,497.7666540999926,497.766667399992,498.24963469999784,498.69059359999665,498.5335000999912,498.53351269999985,499.8665847999946,499.8665847999946,500.8183810000046,right,1,0.9488157999876421,None,500.6672729999991,003,001,2023-11-12_13h59.29.080,untitled,2023.2.3,59.60516347420131,2023-11-12 13h59.38.604721 +0800,
2,condition_2/leftstar.PNG,left,,,,,,,,,,,,,1,19,44,1,500.8878604999918,,,,,,,,,,,,,,,,,,,,,,,,,,,,,,,,,,,,,,,,,,,,,,,,,,,,,,,,,,,,,,,,,,,,,,,,,,,,,,,,,,,,,,,,,,,,,,,,,,,,,,,,,,500.8187418000016,500.8878604999918,501.3345619000029,501.33457569999155,501.8339513999963,502.271722599995,502.1178441999946,502.117855199991,503.43322239999543,503.43322239999543,503.91770389999147,left,1,0.4805789000092773,None,,003,001,2023-11-12_13h59.29.080,untitled,2023.2.3,59.60516347420131,2023-11-12 13h59.38.604721 +0800,
9,condition_2/leftstar.PNG,space,,,,,,,,,,,,,1,20,45,3,503.98232120000466,,,,,,,,,,,,,,,,,,,,,,,,,,,,,,,,,,,,,,,,,,,,,,,,,,,,,,,,,,,,,,,,,,,,,,,,,,,,,,,,,,,,,,,,,,,,,,,,,,,,,,,,,,503.91814900000463,503.98232120000466,504.43312909999804,504.4331405999983,504.93307089999143,505.36942020000424,505.2174248999945,505.21743499999866,506.5165328000003,506.5165328000003,507.60050200000114,space,1,1.0827914999972563,None,507.3162811999937,003,001,2023-11-12_13h59.29.080,untitled,2023.2.3,59.60516347420131,2023-11-12 13h59.38.604721 +0800,
8,condition_2/rightstar.PNG,space,,,,,,,,,,,,,1,21,46,14,507.6700809000031,,,,,,,,,,,,,,,,,,,,,,,,,,,,,,,,,,,,,,,,,,,,,,,,,,,,,,,,,,,,,,,,,,,,,,,,,,,,,,,,,,,,,,,,,,,,,,,,,,,,,,,,,,507.60090350000246,507.6700809000031,508.1178995999944,508.11791190000076,508.6003997999942,509.0503330999927,508.8843763000041,508.8843876000028,510.20028540000203,510.20028540000203,510.85106369999994,right,0,0.6470684999949299,None,,003,001,2023-11-12_13h59.29.080,untitled,2023.2.3,59.60516347420131,2023-11-12 13h59.38.604721 +0800,
2,condition_2/rightstar.PNG,right,,,,,,,,,,,,,1,22,47,13,510.92676380000194,,,,,,,,,,,,,,,,,,,,,,,,,,,,,,,,,,,,,,,,,,,,,,,,,,,,,,,,,,,,,,,,,,,,,,,,,,,,,,,,,,,,,,,,,,,,,,,,,,,,,,,,,,510.8514242999954,510.92676380000194,511.3664686999982,511.36647999999695,511.8670398999966,512.3042570999969,512.1516271,512.1516371000034,513.4498214999912,513.4498214999912,514.1506628999923,right,1,0.6972537999972701,None,,003,001,2023-11-12_13h59.29.080,untitled,2023.2.3,59.60516347420131,2023-11-12 13h59.38.604721 +0800,
9,condition_2/leftstar.PNG,space,,,,,,,,,,,,,1,23,48,19,514.215981699992,,,,,,,,,,,,,,,,,,,,,,,,,,,,,,,,,,,,,,,,,,,,,,,,,,,,,,,,,,,,,,,,,,,,,,,,,,,,,,,,,,,,,,,,,,,,,,,,,,,,,,,,,,514.1510317999928,514.215981699992,514.6670194000035,514.6670328000037,515.1501962000038,515.5869406999991,515.433944999997,515.4339558999927,516.7497799999983,516.7497799999983,517.2841680999991,left,0,0.5307618999941042,None,,003,001,2023-11-12_13h59.29.080,untitled,2023.2.3,59.60516347420131,2023-11-12 13h59.38.604721 +0800,
1,condition_2/rightstar.PNG,right,,,,,,,,,,,,,1,24,49,21,517.3485376000026,,,,,,,,,,,,,,,,,,,,,,,,,,,,,,,,,,,,,,,,,,,,,,,,,,,,,,,,,,,,,,,,,,,,,,,,,,,,,,,,,,,,,,,,,,,,,,,,,,,,,,,,,,517.2845976999961,517.3485376000026,517.8006353999954,517.8006469999964,518.284356899996,518.722717800003,518.567409299998,518.5674206999975,519.8830111999996,519.8830111999996,520.8005598000018,right,1,0.9160190999973565,None,520.6837854999903,003,001,2023-11-12_13h59.29.080,untitled,2023.2.3,59.60516347420131,2023-11-12 13h59.38.604721 +0800,
