stimuli,star,CorrectAns,trials_3.thisRepN,trials_3.thisTrialN,trials_3.thisN,trials_3.thisIndex,trials.thisRepN,trials.thisTrialN,trials.thisN,trials.thisIndex,trials_4.thisRepN,trials_4.thisTrialN,trials_4.thisN,trials_4.thisIndex,trials_2.thisRepN,trials_2.thisTrialN,trials_2.thisN,trials_2.thisIndex,thisRow.t,notes,routine_21.started,text_9.started,key_resp_8.started,routine_21.stopped,key_resp_8.keys,key_resp_8.rt,key_resp_8.duration,introduction.started,text_6.started,key_resp_5.started,introduction.stopped,key_resp_5.keys,key_resp_5.rt,key_resp_5.duration,routine_14.started,image_6.started,routine_14.stopped,routine_16.started,text_4.started,text_4.stopped,routine_16.stopped,routine_17.started,image_7.started,key_resp_3.started,image_7.stopped,routine_17.stopped,key_resp_3.keys,key_resp_3.rt,key_resp_3.duration,routine_20.started,text_8.started,key_resp_7.started,routine_20.stopped,key_resp_7.keys,key_resp_7.rt,key_resp_7.duration,routine_18.started,text_5.started,key_resp_4.started,routine_18.stopped,key_resp_4.keys,key_resp_4.rt,key_resp_4.duration,trial.started,image_3.started,trial.stopped,routine.started,text_3.started,text_3.stopped,routine.stopped,routine_1.started,image_2.started,key_resp.started,image_2.stopped,routine_1.stopped,key_resp.keys,key_resp.corr,key_resp.rt,key_resp.duration,routine_22.started,text_10.started,key_resp_9.started,routine_22.stopped,key_resp_9.keys,key_resp_9.rt,key_resp_9.duration,routine_19.started,text_7.started,key_resp_6.started,routine_19.stopped,key_resp_6.keys,key_resp_6.rt,key_resp_6.duration,routine_23.started,image_8.started,routine_23.stopped,routine_24.started,text_11.started,text_11.stopped,routine_24.stopped,routine_25.started,image_9.started,key_resp_10.started,image_9.stopped,routine_25.stopped,key_resp_10.keys,key_resp_10.rt,key_resp_10.duration,routine_26.started,text_12.started,key_resp_11.started,text_12.stopped,routine_26.stopped,key_resp_11.keys,key_resp_11.rt,key_resp_11.duration,routine_27.started,text_13.started,key_resp_12.started,text_13.stopped,routine_27.stopped,key_resp_12.keys,key_resp_12.rt,key_resp_12.duration,routine_10.started,image_4.started,routine_10.stopped,routine_11.started,text.started,text.stopped,routine_11.stopped,routine_12.started,image_5.started,key_resp_2.started,routine_12.stopped,key_resp_2.keys,key_resp_2.corr,key_resp_2.rt,key_resp_2.duration,image_5.stopped,participant,session,date,expName,psychopyVersion,frameRate,expStart,
,,,,,,,,,,,,,,,,,,,,,0.005484466187681392,0.01591886367305051,0.01591886367305051,3.7670136986960188,space,3.736397379066375,None,,,,,,,,,,,,,,,,,,,,,,,,,,,,,,,,,,,,,,,,,,,,,,,,,,,,,,,,,,,,,,,,,,,,,,,,,,,,,,,,,,,,,,,,,,,,,,,,,,,,,,,,,,,,,,,,,,004,001,2023-11-09_18h04.24.282,untitled,2023.2.2,60.03894805962248,2023-11-09 18h04.44.728823 +0800,
,,,,,,,,,,,,,,,,,,,,,,,,,,,,3.7670563653368845,3.782253201274898,3.782253201274898,122.58395367724847,space,118.78513109625919,None,,,,,,,,,,,,,,,,,,,,,,,,,,,,,,,,,,,,,,,,,,,,,,,,,,,,,,,,,,,,,,,,,,,,,,,,,,,,,,,,,,,,,,,,,,,,,,,,,,,,,,,,,,,004,001,2023-11-09_18h04.24.282,untitled,2023.2.2,60.03894805962248,2023-11-09 18h04.44.728823 +0800,
8,test/rightstar.PNG,right,0,0,0,1,,,,,,,,,,,,,122.74666141045691,,,,,,,,,,,,,,,,122.60527888509046,122.74666141045691,123.09925522673848,123.09927025020374,123.59923674787638,124.15033681106524,123.88347289631679,123.88349603245297,125.22020073152248,125.22020073152248,126.12895571593276,126.01670218714594,right,0.7877974608541081,None,,,,,,,,,,,,,,,,,,,,,,,,,,,,,,,,,,,,,,,,,,,,,,,,,,,,,,,,,,,,,,,,,,,,,,,,,,,,,,,,,,,,,,,,,,,,004,001,2023-11-09_18h04.24.282,untitled,2023.2.2,60.03894805962248,2023-11-09 18h04.44.728823 +0800,
2,test/leftstar.PNG,space,0,1,1,4,,,,,,,,,,,,,126.12895571593276,,,,,,,,,,,,,,,,126.01738785809539,126.12895571593276,126.5325562996843,126.53257132314957,127.03253661894496,127.56799394974996,127.3165744576454,127.31659519002733,128.63630204015635,128.63630204015635,,129.33320543356672,left,0.6831755518944647,None,,,,,,,,,,,,,,,,,,,,,,,,,,,,,,,,,,,,,,,,,,,,,,,,,,,,,,,,,,,,,,,,,,,,,,,,,,,,,,,,,,,,,,,,,,,,004,001,2023-11-09_18h04.24.282,untitled,2023.2.2,60.03894805962248,2023-11-09 18h04.44.728823 +0800,
9,test/rightstar.PNG,right,0,2,2,3,,,,,,,,,,,,,129.44187466403764,,,,,,,,,,,,,,,,129.33371833466686,129.44187466403764,129.84938134872846,129.84940148017176,130.3326838188566,130.8672250187567,130.61684034293148,130.61686317859858,131.95306549299335,131.95306549299335,,132.71661297780997,right,0.7516882618961063,None,,,,,,,,,,,,,,,,,,,,,,,,,,,,,,,,,,,,,,,,,,,,,,,,,,,,,,,,,,,,,,,,,,,,,,,,,,,,,,,,,,,,,,,,,,,,004,001,2023-11-09_18h04.24.282,untitled,2023.2.2,60.03894805962248,2023-11-09 18h04.44.728823 +0800,
8,test/leftstar.PNG,left,0,3,3,5,,,,,,,,,,,,,132.82515991727473,,,,,,,,,,,,,,,,132.7170817099227,132.82515991727473,133.23264316535983,133.23265758788648,133.71590927870238,134.25024045055966,133.99987169960764,133.99991346484057,135.32017167614094,135.32017167614094,,136.06719425070014,left,0.7363856607635171,None,,,,,,,,,,,,,,,,,,,,,,,,,,,,,,,,,,,,,,,,,,,,,,,,,,,,,,,,,,,,,,,,,,,,,,,,,,,,,,,,,,,,,,,,,,,,004,001,2023-11-09_18h04.24.282,untitled,2023.2.2,60.03894805962248,2023-11-09 18h04.44.728823 +0800,
1,test/blank.PNG,space,0,4,4,2,,,,,,,,,,,,,136.18756916427765,,,,,,,,,,,,,,,,136.06804277601168,136.18756916427765,136.58264242921018,136.5826568517366,137.0827612648195,137.4855331542335,137.36728135675094,137.3673096008656,138.6826419184124,138.6826419184124,,138.91749683831176,space,0.2308012885325752,None,,,,,,,,,,,,,,,,,,,,,,,,,,,,,,,,,,,,,,,,,,,,,,,,,,,,,,,,,,,,,,,,,,,,,,,,,,,,,,,,,,,,,,,,,,,,004,001,2023-11-09_18h04.24.282,untitled,2023.2.2,60.03894805962248,2023-11-09 18h04.44.728823 +0800,
1,test/leftstar.PNG,space,0,5,5,0,,,,,,,,,,,,,139.03997593841814,,,,,,,,,,,,,,,,138.9184081617077,139.03997593841814,139.4325405851398,139.43255290438128,139.932562068695,140.46764892084934,140.2166951561644,140.21671799183127,141.5369085975385,141.5369085975385,142.3491585507404,144.86705675594703,space,3.318835188681078,None,,,,,,,,,,,,,,,,,,,,,,,,,,,,,,,,,,,,,,,,,,,,,,,,,,,,,,,,,,,,,,,,,,,,,,,,,,,,,,,,,,,,,,,,,,,,004,001,2023-11-09_18h04.24.282,untitled,2023.2.2,60.03894805962248,2023-11-09 18h04.44.728823 +0800,
,,,,,,,,,,,,,,,,,,,,,,,,,,,,,,,,,,,,,,,,,,,,,,,,,,144.8675606429681,144.88247623963866,144.88247623963866,176.28373045860326,space,31.398138953231182,None,,,,,,,,,,,,,,,,,,,,,,,,,,,,,,,,,,,,,,,,,,,,,,,,,,,,,,,,,,,,,,,,,,,,,,,,,,,,,,,,,,,,,004,001,2023-11-09_18h04.24.282,untitled,2023.2.2,60.03894805962248,2023-11-09 18h04.44.728823 +0800,
,,,,,,,,,,,,,,,,,,,,,,,,,,,,,,,,,,,,,,,,,,,,,,,,,,,,,,,,,176.28377372618297,176.29976320014225,176.29976320014225,178.36722607039928,space,2.0519301096380786,None,,,,,,,,,,,,,,,,,,,,,,,,,,,,,,,,,,,,,,,,,,,,,,,,,,,,,,,,,,,,,,,,,,,,,,,,,,,,,,004,001,2023-11-09_18h04.24.282,untitled,2023.2.2,60.03894805962248,2023-11-09 18h04.44.728823 +0800,
2,condition_1/leftstar.PNG,space,,,,,0,0,0,1,,,,,,,,,178.51584870409079,,,,,,,,,,,,,,,,,,,,,,,,,,,,,,,,,,,,,,,,,,,,,178.3859579276873,178.51584870409079,178.88274906576567,178.8827697981476,179.38273960098263,179.91891415201394,179.66628467002602,179.6662972897368,180.9966098048542,180.9966098048542,181.7991828436834,182.18356901644665,space,1,1.1798963801561513,None,,,,,,,,,,,,,,,,,,,,,,,,,,,,,,,,,,,,,,,,,,,,,,,,,,,,,,,,,,,,,,004,001,2023-11-09_18h04.24.282,untitled,2023.2.2,60.03894805962248,2023-11-09 18h04.44.728823 +0800,
9,condition_1/leftstar.PNG,left,,,,,0,1,1,19,,,,,,,,,182.29629097687666,,,,,,,,,,,,,,,,,,,,,,,,,,,,,,,,,,,,,,,,,,,,,182.18457228344937,182.29629097687666,182.6991698333627,182.6991827535428,183.19942748579,183.73537097592725,183.4834403855382,183.48346622589816,184.80297326394088,184.80297326394088,,185.3667357044967,left,1,0.5563799097810715,None,,,,,,,,,,,,,,,,,,,,,,,,,,,,,,,,,,,,,,,,,,,,,,,,,,,,,,,,,,,,,,004,001,2023-11-09_18h04.24.282,untitled,2023.2.2,60.03894805962248,2023-11-09 18h04.44.728823 +0800,
8,condition_1/leftstar.PNG,left,,,,,0,2,2,2,,,,,,,,,185.47758634210777,,,,,,,,,,,,,,,,,,,,,,,,,,,,,,,,,,,,,,,,,,,,,185.36730569476458,185.47758634210777,185.88265592028188,185.88266974186968,186.38263413625737,186.9186497390274,186.6667855523542,186.6668089889597,187.9711489375254,187.9711489375254,,188.41784342965275,left,1,0.4297576384556123,None,,,,,,,,,,,,,,,,,,,,,,,,,,,,,,,,,,,,,,,,,,,,,,,,,,,,,,,,,,,,,,004,001,2023-11-09_18h04.24.282,untitled,2023.2.2,60.03894805962248,2023-11-09 18h04.44.728823 +0800,
2,condition_1/blank.PNG,space,,,,,0,3,3,9,,,,,,,,,188.54200095128567,,,,,,,,,,,,,,,,,,,,,,,,,,,,,,,,,,,,,,,,,,,,,188.41905582329036,188.54200095128567,188.93262576818734,188.93264409681478,189.43260698885592,189.82606763503918,189.7165712125768,189.7166039637309,191.03259821515212,191.03259821515212,191.83313797820801,192.00177847780446,space,1,0.951514169982147,None,,,,,,,,,,,,,,,,,,,,,,,,,,,,,,,,,,,,,,,,,,,,,,,,,,,,,,,,,,,,,,004,001,2023-11-09_18h04.24.282,untitled,2023.2.2,60.03894805962248,2023-11-09 18h04.44.728823 +0800,
2,condition_1/rightstar.PNG,space,,,,,0,4,4,13,,,,,,,,,192.15075145870333,,,,,,,,,,,,,,,,,,,,,,,,,,,,,,,,,,,,,,,,,,,,,192.00342084301474,192.15075145870333,192.51669031860865,192.51672427163976,193.01635484463168,193.5600237010185,193.30100714305672,193.30104860782058,194.6202434582574,194.6202434582574,,194.75082831875102,space,1,0.12423474224397069,None,,,,,,,,,,,,,,,,,,,,,,,,,,,,,,,,,,,,,,,,,,,,,,,,,,,,,,,,,,,,,,004,001,2023-11-09_18h04.24.282,untitled,2023.2.2,60.03894805962248,2023-11-09 18h04.44.728823 +0800,
8,condition_1/blank.PNG,space,,,,,0,5,5,24,,,,,,,,,194.86334385676992,,,,,,,,,,,,,,,,,,,,,,,,,,,,,,,,,,,,,,,,,,,,,194.75181656228847,194.86334385676992,195.26569208446676,195.265704403708,195.76640074131774,196.13969118365958,196.04956030824542,196.0495726274869,197.36590430593537,197.36590430593537,198.16588189092545,198.4838258876539,space,1,1.105886283786731,None,,,,,,,,,,,,,,,,,,,,,,,,,,,,,,,,,,,,,,,,,,,,,,,,,,,,,,,,,,,,,,004,001,2023-11-09_18h04.24.282,untitled,2023.2.2,60.03894805962248,2023-11-09 18h04.44.728823 +0800,
8,condition_1/leftstar.PNG,left,,,,,0,6,6,18,,,,,,,,,198.59532133238895,,,,,,,,,,,,,,,,,,,,,,,,,,,,,,,,,,,,,,,,,,,,,198.4846467697896,198.59532133238895,198.99918272349578,198.9991962446145,199.49929194408742,200.0342934629598,199.78334660906853,199.783368843797,201.10184677447705,201.10184677447705,201.91583043555715,202.26699011185565,left,1,1.1540653346462477,None,,,,,,,,,,,,,,,,,,,,,,,,,,,,,,,,,,,,,,,,,,,,,,,,,,,,,,,,,,,,,,004,001,2023-11-09_18h04.24.282,untitled,2023.2.2,60.03894805962248,2023-11-09 18h04.44.728823 +0800,
8,condition_1/rightstar.PNG,right,,,,,0,7,7,23,,,,,,,,,202.37869137806342,,,,,,,,,,,,,,,,,,,,,,,,,,,,,,,,,,,,,,,,,,,,,202.26776382031085,202.37869137806342,202.78255607433243,202.78257049685908,203.28251205557945,203.809686649578,203.56651503984062,203.56652796002072,204.88693430268722,204.88693430268722,,205.5174496045372,right,1,0.6168748969014359,None,,,,,,,,,,,,,,,,,,,,,,,,,,,,,,,,,,,,,,,,,,,,,,,,,,,,,,,,,,,,,,004,001,2023-11-09_18h04.24.282,untitled,2023.2.2,60.03894805962248,2023-11-09 18h04.44.728823 +0800,
1,condition_1/rightstar.PNG,space,,,,,0,8,8,4,,,,,,,,,205.63642132646964,,,,,,,,,,,,,,,,,,,,,,,,,,,,,,,,,,,,,,,,,,,,,205.5184225241403,205.63642132646964,206.03274244041768,206.0327598676372,206.5326187972994,207.065213857524,206.81656919943248,206.8165899318144,208.1369788472614,208.1369788472614,,208.5840976020445,space,1,0.4396749282705059,None,,,,,,,,,,,,,,,,,,,,,,,,,,,,,,,,,,,,,,,,,,,,,,,,,,,,,,,,,,,,,,004,001,2023-11-09_18h04.24.282,untitled,2023.2.2,60.03894805962248,2023-11-09 18h04.44.728823 +0800,
8,condition_1/rightstar.PNG,right,,,,,0,9,9,14,,,,,,,,,208.70444457197686,,,,,,,,,,,,,,,,,,,,,,,,,,,,,,,,,,,,,,,,,,,,,208.58507202399414,208.70444457197686,209.09918131129007,209.09919483240878,209.59933470086912,210.1342370648715,209.88339507476712,209.8834170090263,211.20361512646605,211.20361512646605,,211.68329483820776,right,1,0.46833218804431453,None,,,,,,,,,,,,,,,,,,,,,,,,,,,,,,,,,,,,,,,,,,,,,,,,,,,,,,,,,,,,,,004,001,2023-11-09_18h04.24.282,untitled,2023.2.2,60.03894805962248,2023-11-09 18h04.44.728823 +0800,
1,condition_1/leftstar.PNG,space,,,,,0,10,10,16,,,,,,,,,211.79047644515958,,,,,,,,,,,,,,,,,,,,,,,,,,,,,,,,,,,,,,,,,,,,,211.68378099754,211.79047644515958,212.19929287554214,212.19930579572224,212.69929152343047,213.23350791601388,212.98324523072574,212.98327317437088,214.28687697314422,214.28687697314422,,215.00079924834586,space,1,0.6977591299851156,None,,,,,,,,,,,,,,,,,,,,,,,,,,,,,,,,,,,,,,,,,,,,,,,,,,,,,,,,,,,,,,004,001,2023-11-09_18h04.24.282,untitled,2023.2.2,60.03894805962248,2023-11-09 18h04.44.728823 +0800,
1,condition_1/leftstar.PNG,space,,,,,0,11,11,22,,,,,,,,,215.1183731870808,,,,,,,,,,,,,,,,,,,,,,,,,,,,,,,,,,,,,,,,,,,,,215.0017595482384,215.1183731870808,215.5160647415198,215.5160812673314,216.01595612186657,216.54885044951698,216.29995550049625,216.29997833616312,217.6202434582574,217.6202434582574,,218.0839261843073,space,1,0.46034451209334293,None,,,,,,,,,,,,,,,,,,,,,,,,,,,,,,,,,,,,,,,,,,,,,,,,,,,,,,,,,,,,,,004,001,2023-11-09_18h04.24.282,untitled,2023.2.2,60.03894805962248,2023-11-09 18h04.44.728823 +0800,
2,condition_1/rightstar.PNG,space,,,,,0,12,12,5,,,,,,,,,218.2001278797352,,,,,,,,,,,,,,,,,,,,,,,,,,,,,,,,,,,,,,,,,,,,,218.08491412737544,218.2001278797352,218.59937105765493,218.59938638158928,219.09941327359206,219.6351386230151,219.38371943137986,219.38374797596362,220.70431116360646,220.70431116360646,,220.88485054807097,space,1,0.17587429806621913,None,,,,,,,,,,,,,,,,,,,,,,,,,,,,,,,,,,,,,,,,,,,,,,,,,,,,,,,,,,,,,,004,001,2023-11-09_18h04.24.282,untitled,2023.2.2,60.03894805962248,2023-11-09 18h04.44.728823 +0800,
2,condition_1/leftstar.PNG,space,,,,,0,13,13,17,,,,,,,,,221.0062614798053,,,,,,,,,,,,,,,,,,,,,,,,,,,,,,,,,,,,,,,,,,,,,220.8861795237981,221.0062614798053,221.39935976000902,221.39937838910578,221.89932926237475,222.42253886345065,222.182905880695,222.1829188008751,223.50333776325238,223.50333776325238,,223.88388634207763,space,1,0.3770940832487213,None,,,,,,,,,,,,,,,,,,,,,,,,,,,,,,,,,,,,,,,,,,,,,,,,,,,,,,,,,,,,,,004,001,2023-11-09_18h04.24.282,untitled,2023.2.2,60.03894805962248,2023-11-09 18h04.44.728823 +0800,
1,condition_1/rightstar.PNG,space,,,,,0,14,14,12,,,,,,,,,223.99928097695783,,,,,,,,,,,,,,,,,,,,,,,,,,,,,,,,,,,,,,,,,,,,,223.8847162382924,223.99928097695783,224.39930387271875,224.39931769430677,224.89921628591696,225.43178159968056,225.18332984288145,225.18335237807923,226.5033512843711,226.5033512843711,,226.81717194085445,space,1,0.2976256615206694,None,,,,,,,,,,,,,,,,,,,,,,,,,,,,,,,,,,,,,,,,,,,,,,,,,,,,,,,,,,,,,,004,001,2023-11-09_18h04.24.282,untitled,2023.2.2,60.03894805962248,2023-11-09 18h04.44.728823 +0800,
9,condition_1/leftstar.PNG,left,,,,,0,15,15,20,,,,,,,,,226.93208852907355,,,,,,,,,,,,,,,,,,,,,,,,,,,,,,,,,,,,,,,,,,,,,226.81804901074975,226.93208852907355,227.3323355749344,227.33234669229864,227.83276088923276,228.36849044522637,228.11677348851163,228.11679782652527,229.43697431017495,229.43697431017495,,229.91735982430941,left,1,0.46670214207574645,None,,,,,,,,,,,,,,,,,,,,,,,,,,,,,,,,,,,,,,,,,,,,,,,,,,,,,,,,,,,,,,004,001,2023-11-09_18h04.24.282,untitled,2023.2.2,60.03894805962248,2023-11-09 18h04.44.728823 +0800,
9,condition_1/rightstar.PNG,right,,,,,0,16,16,7,,,,,,,,,230.03407201708342,,,,,,,,,,,,,,,,,,,,,,,,,,,,,,,,,,,,,,,,,,,,,229.91834957019364,230.03407201708342,230.43270373997143,230.43271816249785,230.93271320475446,231.46725740934767,231.21686011381166,231.216884151356,232.53529327456545,232.53529327456545,,232.9333952700722,right,1,0.3856971203322246,None,,,,,,,,,,,,,,,,,,,,,,,,,,,,,,,,,,,,,,,,,,,,,,,,,,,,,,,,,,,,,,004,001,2023-11-09_18h04.24.282,untitled,2023.2.2,60.03894805962248,2023-11-09 18h04.44.728823 +0800,
8,condition_1/blank.PNG,space,,,,,0,17,17,10,,,,,,,,,233.0403827738544,,,,,,,,,,,,,,,,,,,,,,,,,,,,,,,,,,,,,,,,,,,,,232.9339433260809,233.0403827738544,233.44932269712058,233.449337119647,233.94943702569026,234.34849150888772,234.23360677041455,234.23363261077475,235.54933330368704,235.54933330368704,236.34907922684442,236.6004227002154,space,1,1.0433844621913977,None,,,,,,,,,,,,,,,,,,,,,,,,,,,,,,,,,,,,,,,,,,,,,,,,,,,,,,,,,,,,,,004,001,2023-11-09_18h04.24.282,untitled,2023.2.2,60.03894805962248,2023-11-09 18h04.44.728823 +0800,
1,condition_1/blank.PNG,space,,,,,0,18,18,8,,,,,,,,,236.71331532720956,,,,,,,,,,,,,,,,,,,,,,,,,,,,,,,,,,,,,,,,,,,,,236.60116485939375,236.71331532720956,237.11603703824994,237.1160520617152,237.61610178938486,237.97761173176377,237.89992329018696,237.89994282069165,239.21599386081107,239.21599386081107,,239.68354993664593,space,1,0.46454447201085713,None,,,,,,,,,,,,,,,,,,,,,,,,,,,,,,,,,,,,,,,,,,,,,,,,,,,,,,,,,,,,,,004,001,2023-11-09_18h04.24.282,untitled,2023.2.2,60.03894805962248,2023-11-09 18h04.44.728823 +0800,
9,condition_1/rightstar.PNG,right,,,,,0,19,19,15,,,,,,,,,239.79986370712413,,,,,,,,,,,,,,,,,,,,,,,,,,,,,,,,,,,,,,,,,,,,,239.68425994560903,239.79986370712413,240.19941366420198,240.19943109142173,240.68315121388082,241.23852334961975,240.96767611332143,240.96771787855437,242.31060623587973,242.31060623587973,,242.8832637696819,right,1,0.5711858351560295,None,,,,,,,,,,,,,,,,,,,,,,,,,,,,,,,,,,,,,,,,,,,,,,,,,,,,,,,,,,,,,,004,001,2023-11-09_18h04.24.282,untitled,2023.2.2,60.03894805962248,2023-11-09 18h04.44.728823 +0800,
9,condition_1/leftstar.PNG,left,,,,,0,20,20,3,,,,,,,,,242.9925029904207,,,,,,,,,,,,,,,,,,,,,,,,,,,,,,,,,,,,,,,,,,,,,242.883771562804,242.9925029904207,243.40006976897212,243.40010372200322,243.8831357697586,244.42328913530037,244.16771265038847,244.16775471609094,245.48618817731403,245.48618817731403,,245.9833491931047,left,1,0.4822129684353058,None,,,,,,,,,,,,,,,,,,,,,,,,,,,,,,,,,,,,,,,,,,,,,,,,,,,,,,,,,,,,,,004,001,2023-11-09_18h04.24.282,untitled,2023.2.2,60.03894805962248,2023-11-09 18h04.44.728823 +0800,
9,condition_1/blank.PNG,space,,,,,0,21,21,11,,,,,,,,,246.0960158671828,,,,,,,,,,,,,,,,,,,,,,,,,,,,,,,,,,,,,,,,,,,,,245.98389514582823,246.0960158671828,246.49933040415817,246.49934512715413,246.99931342764262,247.3685679663065,247.2833161114345,247.2833371442855,248.58287469198126,248.58287469198126,249.38239977020112,249.58382687920266,space,1,0.9924287745029687,None,,,,,,,,,,,,,,,,,,,,,,,,,,,,,,,,,,,,,,,,,,,,,,,,,,,,,,,,,,,,,,004,001,2023-11-09_18h04.24.282,untitled,2023.2.2,60.03894805962248,2023-11-09 18h04.44.728823 +0800,
2,condition_1/rightstar.PNG,space,,,,,0,22,22,21,,,,,,,,,249.69758575919718,,,,,,,,,,,,,,,,,,,,,,,,,,,,,,,,,,,,,,,,,,,,,249.58467089747478,249.69758575919718,250.10005056898353,250.10008632483073,250.59931607177236,251.13404506498705,250.88343083061432,250.88345516862773,252.20359229079895,252.20359229079895,,252.70073768218572,space,1,0.4845623379155768,None,,,,,,,,,,,,,,,,,,,,,,,,,,,,,,,,,,,,,,,,,,,,,,,,,,,,,,,,,,,,,,004,001,2023-11-09_18h04.24.282,untitled,2023.2.2,60.03894805962248,2023-11-09 18h04.44.728823 +0800,
8,condition_1/rightstar.PNG,right,,,,,0,23,23,6,,,,,,,,,252.81873648451506,,,,,,,,,,,,,,,,,,,,,,,,,,,,,,,,,,,,,,,,,,,,,252.70174064871912,252.81873648451506,253.21602901571964,253.21604313777675,253.7161625743247,254.24028680395895,253.9996117936605,253.99962471384038,255.31989794860579,255.31989794860579,,255.9167808199627,right,1,0.5926537659170208,None,,,,,,,,,,,,,,,,,,,,,,,,,,,,,,,,,,,,,,,,,,,,,,,,,,,,,,,,,,,,,,004,001,2023-11-09_18h04.24.282,untitled,2023.2.2,60.03894805962248,2023-11-09 18h04.44.728823 +0800,
1,condition_1/leftstar.PNG,space,,,,,0,24,24,0,,,,,,,,,256.0251691116355,,,,,,,,,,,,,,,,,,,,,,,,,,,,,,,,,,,,,,,,,,,,,255.91732647221693,256.0251691116355,256.4326721906946,256.4326875146289,256.9326020311123,257.4621196847356,257.2167050716514,257.21672610450264,258.52114237227124,258.52114237227124,259.3325648330126,259.38359022957957,space,1,0.84684448640337,None,,,,,,,,,,,,,,,,,,,,,,,,,,,,,,,,,,,,,,,,,,,,,,,,,,,,,,,,,,,,,,004,001,2023-11-09_18h04.24.282,untitled,2023.2.2,60.03894805962248,2023-11-09 18h04.44.728823 +0800,
8,condition_1/leftstar.PNG,left,,,,,1,0,25,18,,,,,,,,,259.49900860153457,,,,,,,,,,,,,,,,,,,,,,,,,,,,,,,,,,,,,,,,,,,,,259.3842749991211,259.49900860153457,259.8997427081358,259.8997715531889,260.39958721527137,260.9384581778279,260.6838474012559,260.6838804528793,262.00313599811534,262.00313599811534,,262.6334779291776,left,1,0.6138131147038166,None,,,,,,,,,,,,,,,,,,,,,,,,,,,,,,,,,,,,,,,,,,,,,,,,,,,,,,,,,,,,,,004,001,2023-11-09_18h04.24.282,untitled,2023.2.2,60.03894805962248,2023-11-09 18h04.44.728823 +0800,
8,condition_1/blank.PNG,space,,,,,1,1,26,10,,,,,,,,,262.74196477478176,,,,,,,,,,,,,,,,,,,,,,,,,,,,,,,,,,,,,,,,,,,,,262.6340521260156,262.74196477478176,263.1494390087878,263.1494564360073,263.6493150652002,264.02913620784307,263.932967702254,263.9329806224341,265.2493630801948,265.2493630801948,266.0494500360112,266.21746075194847,space,1,0.9665178041584568,None,,,,,,,,,,,,,,,,,,,,,,,,,,,,,,,,,,,,,,,,,,,,,,,,,,,,,,,,,,,,,,004,001,2023-11-09_18h04.24.282,untitled,2023.2.2,60.03894805962248,2023-11-09 18h04.44.728823 +0800,
9,condition_1/leftstar.PNG,left,,,,,1,2,27,20,,,,,,,,,266.33713046407183,,,,,,,,,,,,,,,,,,,,,,,,,,,,,,,,,,,,,,,,,,,,,266.2184348734288,266.33713046407183,266.73254836729484,266.7325609870056,267.2329793905101,267.777860340065,267.51722906006876,267.51726151075354,268.83717328094735,268.83717328094735,,269.4334873639136,left,1,0.5865569432896791,None,,,,,,,,,,,,,,,,,,,,,,,,,,,,,,,,,,,,,,,,,,,,,,,,,,,,,,,,,,,,,,004,001,2023-11-09_18h04.24.282,untitled,2023.2.2,60.03894805962248,2023-11-09 18h04.44.728823 +0800,
2,condition_1/rightstar.PNG,space,,,,,1,3,28,13,,,,,,,,,269.54861037454384,,,,,,,,,,,,,,,,,,,,,,,,,,,,,,,,,,,,,,,,,,,,,269.4340420302469,269.54861037454384,269.95008033046815,269.9501151849072,270.4493377205856,270.9832500382347,270.73327970957826,270.73331005697787,272.0535874983136,272.0535874983136,,272.7006141893023,right,0,0.6439081200926466,None,,,,,,,,,,,,,,,,,,,,,,,,,,,,,,,,,,,,,,,,,,,,,,,,,,,,,,,,,,,,,,004,001,2023-11-09_18h04.24.282,untitled,2023.2.2,60.03894805962248,2023-11-09 18h04.44.728823 +0800,
9,condition_1/rightstar.PNG,right,,,,,1,4,29,7,,,,,,,,,272.82073160068694,,,,,,,,,,,,,,,,,,,,,,,,,,,,,,,,,,,,,,,,,,,,,272.701599728616,272.82073160068694,273.2159406777446,273.2159547998017,273.71598469649734,274.25403778161103,273.9999447136481,273.9999666479073,275.3203567652315,275.3203567652315,276.13254482175694,276.30051407293035,right,1,0.9766799764552161,None,,,,,,,,,,,,,,,,,,,,,,,,,,,,,,,,,,,,,,,,,,,,,,,,,,,,,,,,,,,,,,004,001,2023-11-09_18h04.24.282,untitled,2023.2.2,60.03894805962248,2023-11-09 18h04.44.728823 +0800,
8,condition_1/blank.PNG,space,,,,,1,5,30,24,,,,,,,,,276.4116802033095,,,,,,,,,,,,,,,,,,,,,,,,,,,,,,,,,,,,,,,,,,,,,276.30134697383846,276.4116802033095,276.81599740634897,276.81601122793677,277.31623462686366,277.69319169611003,277.6004860992384,277.60051614616873,278.91600891432313,278.91600891432313,279.7160988748326,280.1672937961803,space,1,1.2352311074666886,None,,,,,,,,,,,,,,,,,,,,,,,,,,,,,,,,,,,,,,,,,,,,,,,,,,,,,,,,,,,,,,004,001,2023-11-09_18h04.24.282,untitled,2023.2.2,60.03894805962248,2023-11-09 18h04.44.728823 +0800,
1,condition_1/rightstar.PNG,space,,,,,1,6,31,12,,,,,,,,,280.2891563332769,,,,,,,,,,,,,,,,,,,,,,,,,,,,,,,,,,,,,,,,,,,,,280.1682249505502,280.2891563332769,280.6824258809834,280.6824372988169,281.18279230329836,281.72195111544715,281.4668616912754,281.4668863297584,282.78701954582857,282.78701954582857,,283.55088763139133,space,1,0.7497772771291693,None,,,,,,,,,,,,,,,,,,,,,,,,,,,,,,,,,,,,,,,,,,,,,,,,,,,,,,,,,,,,,,004,001,2023-11-09_18h04.24.282,untitled,2023.2.2,60.03894805962248,2023-11-09 18h04.44.728823 +0800,
2,condition_1/rightstar.PNG,space,,,,,1,7,32,21,,,,,,,,,283.6730064688036,,,,,,,,,,,,,,,,,,,,,,,,,,,,,,,,,,,,,,,,,,,,,283.55184462612146,283.6730064688036,284.06602963168166,284.0660455565546,284.56608717155314,285.1056131571902,284.850153254368,284.85017759238144,286.1698877476731,286.1698877476731,286.9825793907503,287.1169775071685,space,1,0.9413225516937018,None,,,,,,,,,,,,,,,,,,,,,,,,,,,,,,,,,,,,,,,,,,,,,,,,,,,,,,,,,,,,,,004,001,2023-11-09_18h04.24.282,untitled,2023.2.2,60.03894805962248,2023-11-09 18h04.44.728823 +0800,
9,condition_1/rightstar.PNG,right,,,,,1,8,33,15,,,,,,,,,287.23004681011275,,,,,,,,,,,,,,,,,,,,,,,,,,,,,,,,,,,,,,,,,,,,,287.11770734710535,287.23004681011275,287.63306778857896,287.63309392940823,288.1329450468686,288.6760649458388,288.4172019276907,288.4172340779062,289.73674892815075,289.73674892815075,,290.31681573449555,right,1,0.5755447433346035,None,,,,,,,,,,,,,,,,,,,,,,,,,,,,,,,,,,,,,,,,,,,,,,,,,,,,,,,,,,,,,,004,001,2023-11-09_18h04.24.282,untitled,2023.2.2,60.03894805962248,2023-11-09 18h04.44.728823 +0800,
1,condition_1/leftstar.PNG,space,,,,,1,9,34,0,,,,,,,,,290.429629338063,,,,,,,,,,,,,,,,,,,,,,,,,,,,,,,,,,,,,,,,,,,,,290.317391133211,290.429629338063,290.83272062634614,290.8327353493421,291.332687124019,291.87326955972526,291.61691936635816,291.6169437043718,292.93672957792774,292.93672957792774,,293.60054078465146,space,1,0.6475906718703754,None,,,,,,,,,,,,,,,,,,,,,,,,,,,,,,,,,,,,,,,,,,,,,,,,,,,,,,,,,,,,,,004,001,2023-11-09_18h04.24.282,untitled,2023.2.2,60.03894805962248,2023-11-09 18h04.44.728823 +0800,
1,condition_1/rightstar.PNG,space,,,,,1,10,35,4,,,,,,,,,293.7173506299489,,,,,,,,,,,,,,,,,,,,,,,,,,,,,,,,,,,,,,,,,,,,,293.6013685775813,293.7173506299489,294.11596462514785,294.11597994908243,294.6161660898156,295.1540232689438,294.9004040410716,294.9004298814318,296.2186283756598,296.2186283756598,,296.65201478188783,space,1,0.42116722108244176,None,,,,,,,,,,,,,,,,,,,,,,,,,,,,,,,,,,,,,,,,,,,,,,,,,,,,,,,,,,,,,,004,001,2023-11-09_18h04.24.282,untitled,2023.2.2,60.03894805962248,2023-11-09 18h04.44.728823 +0800,
2,condition_1/blank.PNG,space,,,,,1,11,36,9,,,,,,,,,296.7789898041751,,,,,,,,,,,,,,,,,,,,,,,,,,,,,,,,,,,,,,,,,,,,,296.6536607527296,296.7789898041751,297.16591554348724,297.1659302664832,297.6661743977918,298.0500245333185,297.9502245557335,297.9502503960937,299.26603041290196,299.26603041290196,,299.6509388013137,space,1,0.3817098926815561,None,,,,,,,,,,,,,,,,,,,,,,,,,,,,,,,,,,,,,,,,,,,,,,,,,,,,,,,,,,,,,,004,001,2023-11-09_18h04.24.282,untitled,2023.2.2,60.03894805962248,2023-11-09 18h04.44.728823 +0800,
1,condition_1/leftstar.PNG,space,,,,,1,12,37,16,,,,,,,,,299.76667236556773,,,,,,,,,,,,,,,,,,,,,,,,,,,,,,,,,,,,,,,,,,,,,299.65190961763165,299.76667236556773,300.1660330269847,300.16604835091925,300.6660052335742,301.19755706437877,300.9500019079801,300.95003015209454,302.27113748964507,302.27113748964507,,302.7678838577974,space,1,0.48084883779961274,None,,,,,,,,,,,,,,,,,,,,,,,,,,,,,,,,,,,,,,,,,,,,,,,,,,,,,,,,,,,,,,004,001,2023-11-09_18h04.24.282,untitled,2023.2.2,60.03894805962248,2023-11-09 18h04.44.728823 +0800,
2,condition_1/leftstar.PNG,space,,,,,1,13,38,17,,,,,,,,,302.8939529651361,,,,,,,,,,,,,,,,,,,,,,,,,,,,,,,,,,,,,,,,,,,,,302.76910436410617,302.8939529651361,303.28267821510417,303.28269173622266,303.7826846751941,304.320413854399,304.06665130266947,304.0666855561701,305.3867487628927,305.3867487628927,,305.8339167946415,space,1,0.4377798683765377,None,,,,,,,,,,,,,,,,,,,,,,,,,,,,,,,,,,,,,,,,,,,,,,,,,,,,,,,,,,,,,,004,001,2023-11-09_18h04.24.282,untitled,2023.2.2,60.03894805962248,2023-11-09 18h04.44.728823 +0800,
9,condition_1/leftstar.PNG,left,,,,,1,14,39,3,,,,,,,,,305.9460636568256,,,,,,,,,,,,,,,,,,,,,,,,,,,,,,,,,,,,,,,,,,,,,305.8348368316472,305.9460636568256,306.34931870087894,306.34933282293605,306.84931764923635,307.37745674969733,307.1333903423756,307.13341107475753,308.4536563658778,308.4536563658778,,309.017537191339,left,1,0.5616967140977067,None,,,,,,,,,,,,,,,,,,,,,,,,,,,,,,,,,,,,,,,,,,,,,,,,,,,,,,,,,,,,,,004,001,2023-11-09_18h04.24.282,untitled,2023.2.2,60.03894805962248,2023-11-09 18h04.44.728823 +0800,
2,condition_1/rightstar.PNG,space,,,,,1,15,40,5,,,,,,,,,309.13709332606595,,,,,,,,,,,,,,,,,,,,,,,,,,,,,,,,,,,,,,,,,,,,,309.0185167212669,309.13709332606595,309.5327744403985,309.53278976433285,310.0327691821856,310.5620323383091,310.3168109269868,310.31683586593886,311.63849035809017,311.63849035809017,,312.2333925358016,space,1,0.5860584647159612,None,,,,,,,,,,,,,,,,,,,,,,,,,,,,,,,,,,,,,,,,,,,,,,,,,,,,,,,,,,,,,,004,001,2023-11-09_18h04.24.282,untitled,2023.2.2,60.03894805962248,2023-11-09 18h04.44.728823 +0800,
1,condition_1/leftstar.PNG,space,,,,,1,16,41,22,,,,,,,,,312.3454098957161,,,,,,,,,,,,,,,,,,,,,,,,,,,,,,,,,,,,,,,,,,,,,312.23394119274894,312.3454098957161,312.7492667797833,312.7492800004327,313.24925701453094,313.7820404690085,313.53347092824265,313.53349406437906,314.83722556260614,314.83722556260614,,315.33344971510996,space,1,0.48276012303608695,None,,,,,,,,,,,,,,,,,,,,,,,,,,,,,,,,,,,,,,,,,,,,,,,,,,,,,,,,,,,,,,004,001,2023-11-09_18h04.24.282,untitled,2023.2.2,60.03894805962248,2023-11-09 18h04.44.728823 +0800,
8,condition_1/rightstar.PNG,right,,,,,1,17,42,6,,,,,,,,,315.4415008802248,,,,,,,,,,,,,,,,,,,,,,,,,,,,,,,,,,,,,,,,,,,,,315.33400408097395,315.4415008802248,315.8493221562758,315.84933748021035,316.3493748886385,316.8781714159345,316.6334121264001,316.6334340606593,317.9537409479865,317.9537409479865,,318.5341794348592,right,1,0.5746409316711834,None,,,,,,,,,,,,,,,,,,,,,,,,,,,,,,,,,,,,,,,,,,,,,,,,,,,,,,,,,,,,,,004,001,2023-11-09_18h04.24.282,untitled,2023.2.2,60.03894805962248,2023-11-09 18h04.44.728823 +0800,
8,condition_1/rightstar.PNG,right,,,,,1,18,43,23,,,,,,,,,318.64804468098714,,,,,,,,,,,,,,,,,,,,,,,,,,,,,,,,,,,,,,,,,,,,,318.5351481478922,318.64804468098714,319.0494371158311,319.049452740235,319.54929454314697,320.0796565155115,319.83346789350276,319.8334892268233,321.1530846028411,321.1530846028411,322.0661080541697,321.95061216113436,right,1,0.7908048581080038,None,,,,,,,,,,,,,,,,,,,,,,,,,,,,,,,,,,,,,,,,,,,,,,,,,,,,,,,,,,,,,,004,001,2023-11-09_18h04.24.282,untitled,2023.2.2,60.03894805962248,2023-11-09 18h04.44.728823 +0800,
8,condition_1/leftstar.PNG,left,,,,,1,19,44,2,,,,,,,,,322.0661080541697,,,,,,,,,,,,,,,,,,,,,,,,,,,,,,,,,,,,,,,,,,,,,321.95142823576134,322.0661080541697,322.46608227390357,322.4660963959607,322.96596103453976,323.50218846816847,323.2505601498981,323.2505898963591,324.57118283046293,324.57118283046293,,325.0679460248962,left,1,0.49240578860121786,None,,,,,,,,,,,,,,,,,,,,,,,,,,,,,,,,,,,,,,,,,,,,,,,,,,,,,,,,,,,,,,004,001,2023-11-09_18h04.24.282,untitled,2023.2.2,60.03894805962248,2023-11-09 18h04.44.728823 +0800,
1,condition_1/blank.PNG,space,,,,,1,20,45,8,,,,,,,,,325.189834402353,,,,,,,,,,,,,,,,,,,,,,,,,,,,,,,,,,,,,,,,,,,,,325.0691656297972,325.189834402353,325.58265204422787,325.582666166285,326.0827213024022,326.47820711168765,326.36664766699096,326.3666780143906,327.6830968289371,327.6830968289371,328.4824779823605,328.75072405590277,space,1,1.0520650203552577,None,,,,,,,,,,,,,,,,,,,,,,,,,,,,,,,,,,,,,,,,,,,,,,,,,,,,,,,,,,,,,,004,001,2023-11-09_18h04.24.282,untitled,2023.2.2,60.03894805962248,2023-11-09 18h04.44.728823 +0800,
2,condition_1/leftstar.PNG,space,,,,,1,21,46,1,,,,,,,,,328.86603425890894,,,,,,,,,,,,,,,,,,,,,,,,,,,,,,,,,,,,,,,,,,,,,328.751743548248,328.86603425890894,329.2661274644868,329.2661481968687,329.76611890111167,330.29818273160845,330.05020812006273,330.05023245807615,331.3703251107904,331.3703251107904,,331.8000313689952,space,1,0.42085323066089586,None,,,,,,,,,,,,,,,,,,,,,,,,,,,,,,,,,,,,,,,,,,,,,,,,,,,,,,,,,,,,,,004,001,2023-11-09_18h04.24.282,untitled,2023.2.2,60.03894805962248,2023-11-09 18h04.44.728823 +0800,
9,condition_1/leftstar.PNG,left,,,,,1,22,47,19,,,,,,,,,331.90855156669204,,,,,,,,,,,,,,,,,,,,,,,,,,,,,,,,,,,,,,,,,,,,,331.8005226363057,331.90855156669204,332.3160312091454,332.3160462326107,332.7992753882288,333.3347450382753,333.08337722689066,333.08339735833397,334.4202195409009,334.4202195409009,,334.95073415167144,left,1,0.5158775491440792,None,,,,,,,,,,,,,,,,,,,,,,,,,,,,,,,,,,,,,,,,,,,,,,,,,,,,,,,,,,,,,,004,001,2023-11-09_18h04.24.282,untitled,2023.2.2,60.03894805962248,2023-11-09 18h04.44.728823 +0800,
8,condition_1/rightstar.PNG,right,,,,,1,23,48,14,,,,,,,,,335.069971788937,,,,,,,,,,,,,,,,,,,,,,,,,,,,,,,,,,,,,,,,,,,,,334.9517431275908,335.069971788937,335.46644463988287,335.466471381651,335.96630687470747,336.5039200727615,336.2506445817721,336.2506770324569,337.570312370892,337.570312370892,,338.10072842773116,right,1,0.5270946691637164,None,,,,,,,,,,,,,,,,,,,,,,,,,,,,,,,,,,,,,,,,,,,,,,,,,,,,,,,,,,,,,,004,001,2023-11-09_18h04.24.282,untitled,2023.2.2,60.03894805962248,2023-11-09 18h04.44.728823 +0800,
9,condition_1/blank.PNG,space,,,,,1,24,49,11,,,,,,,,,338.2187975398774,,,,,,,,,,,,,,,,,,,,,,,,,,,,,,,,,,,,,,,,,,,,,338.10173079332594,338.2187975398774,338.61601885985715,338.61603178003725,339.115971535942,339.4851521591572,339.4001121351439,339.4001334684642,340.7161688841802,340.7161688841802,,340.98414153065664,space,1,0.25959255761563327,None,,,,,,,,,,,,,,,,,,,,,,,,,,,,,,,,,,,,,,,,,,,,,,,,,,,,,,,,,,,,,,004,001,2023-11-09_18h04.24.282,untitled,2023.2.2,60.03894805962248,2023-11-09 18h04.44.728823 +0800,
,,,,,,,,,,,,,,,,,,,,,,,,,,,,,,,,,,,,,,,,,,,,,,,,,,,,,,,,,,,,,,,,,,,,,,,,,,,,,,,,340.98487557716385,340.9992226859131,340.9992226859131,381.4004378438683,space,40.39289486248572,None,,,,,,,,,,,,,,,,,,,,,,,,,,,,,,,,,,,,,,,,,,,,,,,,,,,,,,,004,001,2023-11-09_18h04.24.282,untitled,2023.2.2,60.03894805962248,2023-11-09 18h04.44.728823 +0800,
,,,,,,,,,,,,,,,,,,,,,,,,,,,,,,,,,,,,,,,,,,,,,,,,,,,,,,,,,,,,,,,,,,,,,,,,,,,,,,,,,,,,,,,381.40048591895675,381.41593424770144,381.41593424770144,382.73391009417605,space,1.3117567328411042,None,,,,,,,,,,,,,,,,,,,,,,,,,,,,,,,,,,,,,,,,,,,,,,,,004,001,2023-11-09_18h04.24.282,untitled,2023.2.2,60.03894805962248,2023-11-09 18h04.44.728823 +0800,
9,test2/rightstar.PNG,space,,,,,,,,,0,0,0,3,,,,,382.90026882988536,,,,,,,,,,,,,,,,,,,,,,,,,,,,,,,,,,,,,,,,,,,,,,,,,,,,,,,,,,,,,,,,,,,,,,,,,,,382.76235612403,382.90026882988536,383.2500060845034,383.25004784973635,383.7331610242036,384.28321515374864,384.01760239317787,384.0176456607576,385.34641797022755,385.34641797022755,386.1493001919698,387.517546656122,space,2.1648407647903696,None,,,,,,,,,,,,,,,,,,,,,,,,,,,,,,,,,004,001,2023-11-09_18h04.24.282,untitled,2023.2.2,60.03894805962248,2023-11-09 18h04.44.728823 +0800,
1,test2/leftstar.PNG,left,,,,,,,,,0,1,1,0,,,,,387.64077692948604,,,,,,,,,,,,,,,,,,,,,,,,,,,,,,,,,,,,,,,,,,,,,,,,,,,,,,,,,,,,,,,,,,,,,,,,,,,387.5186668056838,387.64077692948604,388.03291490979746,388.03293474077145,388.53260076914125,389.0733715991005,388.81686666404244,388.81689280487194,390.13841148489814,390.13841148489814,,390.7168067805105,left,0.5736052139836829,None,,,,,,,,,,,,,,,,,,,,,,,,,,,,,,,,,004,001,2023-11-09_18h04.24.282,untitled,2023.2.2,60.03894805962248,2023-11-09 18h04.44.728823 +0800,
2,test2/leftstar.PNG,left,,,,,,,,,0,2,2,4,,,,,390.81989208945447,,,,,,,,,,,,,,,,,,,,,,,,,,,,,,,,,,,,,,,,,,,,,,,,,,,,,,,,,,,,,,,,,,,,,,,,,,,390.7173007520446,390.81989208945447,391.2328438788543,391.23286340935897,391.716311607099,392.23933311439123,391.9998010893214,391.9998146104399,393.32120499007397,393.32120499007397,,393.7345131360671,left,0.40659536129487606,None,,,,,,,,,,,,,,,,,,,,,,,,,,,,,,,,,004,001,2023-11-09_18h04.24.282,untitled,2023.2.2,60.03894805962248,2023-11-09 18h04.44.728823 +0800,
1,test2/blank.PNG,space,,,,,,,,,0,3,3,2,,,,,393.85472309199736,,,,,,,,,,,,,,,,,,,,,,,,,,,,,,,,,,,,,,,,,,,,,,,,,,,,,,,,,,,,,,,,,,,,,,,,,,,393.7355485532853,393.85472309199736,394.2493853149233,394.2494024416735,394.74954801905096,395.1422779238892,395.03362161359814,395.0336486558356,396.3496564283755,396.3496564283755,,396.58445035300633,space,0.21770172832952994,None,,,,,,,,,,,,,,,,,,,,,,,,,,,,,,,,,004,001,2023-11-09_18h04.24.282,untitled,2023.2.2,60.03894805962248,2023-11-09 18h04.44.728823 +0800,
8,test2/rightstar.PNG,space,,,,,,,,,0,4,4,1,,,,,396.7052945996352,,,,,,,,,,,,,,,,,,,,,,,,,,,,,,,,,,,,,,,,,,,,,,,,,,,,,,,,,,,,,,,,,,,,,,,,,,,396.5854788594304,396.7052945996352,397.0994658557199,397.09948298247036,397.5993136680181,398.13275695308494,397.88363064270084,397.8836567835301,399.2048779989466,399.2048779989466,,399.6683380772429,space,0.45054110014439175,None,,,,,,,,,,,,,,,,,,,,,,,,,,,,,,,,,004,001,2023-11-09_18h04.24.282,untitled,2023.2.2,60.03894805962248,2023-11-09 18h04.44.728823 +0800,
8,test2/rightstar.PNG,space,,,,,,,,,0,5,5,5,,,,,399.7892457228945,,,,,,,,,,,,,,,,,,,,,,,,,,,,,,,,,,,,,,,,,,,,,,,,,,,,,,,,,,,,,,,,,,,,,,,,,,,399.6695820201571,399.7892457228945,400.1828827445586,400.1829055802257,400.68286636898165,401.21524989881686,400.9670355127673,400.9670616535966,402.2880085405393,402.2880085405393,,402.7687047399331,space,0.4638723221798955,None,,,,,,,,,,,,,,,,,,,,,,,,,,,,,,,,,004,001,2023-11-09_18h04.24.282,untitled,2023.2.2,60.03894805962248,2023-11-09 18h04.44.728823 +0800,
,,,,,,,,,,,,,,,,,,,,,,,,,,,,,,,,,,,,,,,,,,,,,,,,,,,,,,,,,,,,,,,,,,,,,,,,,,,,,,,,,,,,,,,,,,,,,,,,,,,,,,,,,,,,,402.76965151870695,402.7835773694933,402.7835773694933,403.78299866561565,403.90114860400445,space,1.1045903596827884,None,,,,,,,,,,,,,,,,,,,,,,,,,004,001,2023-11-09_18h04.24.282,untitled,2023.2.2,60.03894805962248,2023-11-09 18h04.44.728823 +0800,
,,,,,,,,,,,,,,,,,,,,,,,,,,,,,,,,,,,,,,,,,,,,,,,,,,,,,,,,,,,,,,,,,,,,,,,,,,,,,,,,,,,,,,,,,,,,,,,,,,,,,,,,,,,,,,,,,,,,,403.90121861335206,403.91591667024727,403.91591667024727,404.91601973121806,408.18444127883345,space,4.251426703367997,None,,,,,,,,,,,,,,,,,004,001,2023-11-09_18h04.24.282,untitled,2023.2.2,60.03894805962248,2023-11-09 18h04.44.728823 +0800,
8,condition_2/leftstar.PNG,space,,,,,,,,,,,,,0,0,0,2,408.32212803177276,,,,,,,,,,,,,,,,,,,,,,,,,,,,,,,,,,,,,,,,,,,,,,,,,,,,,,,,,,,,,,,,,,,,,,,,,,,,,,,,,,,,,,,,,,,,,,,,,,,,,,,,,,408.2087606632799,408.32212803177276,408.69941020880515,408.69942673461674,409.19934305391575,409.7428493564098,409.48350588784615,409.4835302258598,410.81300082599,410.81300082599,411.2667467317201,space,1,0.44291158360238114,None,,004,001,2023-11-09_18h04.24.282,untitled,2023.2.2,60.03894805962248,2023-11-09 18h04.44.728823 +0800,
9,condition_2/leftstar.PNG,space,,,,,,,,,,,,,0,1,1,3,411.3763864780399,,,,,,,,,,,,,,,,,,,,,,,,,,,,,,,,,,,,,,,,,,,,,,,,,,,,,,,,,,,,,,,,,,,,,,,,,,,,,,,,,,,,,,,,,,,,,,,,,,,,,,,,,,411.267538768803,411.3763864780399,411.7827913417966,411.78280906948567,412.28268182073566,412.82120994781735,412.5668094997577,412.56683443870975,413.87167226491056,413.87167226491056,414.3516788872539,space,1,0.4645162278961834,None,,004,001,2023-11-09_18h04.24.282,untitled,2023.2.2,60.03894805962248,2023-11-09 18h04.44.728823 +0800,
8,condition_2/blank.PNG,space,,,,,,,,,,,,,0,2,2,10,414.4699715485617,,,,,,,,,,,,,,,,,,,,,,,,,,,,,,,,,,,,,,,,,,,,,,,,,,,,,,,,,,,,,,,,,,,,,,,,,,,,,,,,,,,,,,,,,,,,,,,,,,,,,,,,,,414.3532428299761,414.4699715485617,414.86617427760416,414.8661947095168,415.3661576015579,415.76439570965886,415.6502345012675,415.65025974068885,416.96623596395193,416.96623596395193,417.56742936792966,space,1,0.58558101899348,None,,004,001,2023-11-09_18h04.24.282,untitled,2023.2.2,60.03894805962248,2023-11-09 18h04.44.728823 +0800,
8,condition_2/rightstar.PNG,space,,,,,,,,,,,,,0,3,3,6,417.6847145556644,,,,,,,,,,,,,,,,,,,,,,,,,,,,,,,,,,,,,,,,,,,,,,,,,,,,,,,,,,,,,,,,,,,,,,,,,,,,,,,,,,,,,,,,,,,,,,,,,,,,,,,,,,417.56846208092406,417.6847145556644,418.0824797250825,418.0824944480785,418.58267518036405,419.12257134418246,418.8669837419063,418.86701108461307,420.1868982163239,420.1868982163239,420.7001223210532,space,1,0.5103798623069906,None,,004,001,2023-11-09_18h04.24.282,untitled,2023.2.2,60.03894805962248,2023-11-09 18h04.44.728823 +0800,
8,condition_2/leftstar.PNG,space,,,,,,,,,,,,,0,4,4,18,420.80511681194844,,,,,,,,,,,,,,,,,,,,,,,,,,,,,,,,,,,,,,,,,,,,,,,,,,,,,,,,,,,,,,,,,,,,,,,,,,,,,,,,,,,,,,,,,,,,,,,,,,,,,,,,,,420.7007106399485,420.80511681194844,421.2160918138038,421.2161080391463,421.71614664945173,422.2516670788102,422.0004257650023,422.0004546100554,423.3187799023294,423.3187799023294,423.86691493443595,space,1,0.544770677320912,None,,004,001,2023-11-09_18h04.24.282,untitled,2023.2.2,60.03894805962248,2023-11-09 18h04.44.728823 +0800,
9,condition_2/rightstar.PNG,space,,,,,,,,,,,,,0,5,5,15,423.9793766884495,,,,,,,,,,,,,,,,,,,,,,,,,,,,,,,,,,,,,,,,,,,,,,,,,,,,,,,,,,,,,,,,,,,,,,,,,,,,,,,,,,,,,,,,,,,,,,,,,,,,,,,,,,423.8674798167258,423.9793766884495,424.38275372303997,424.38276964791294,424.8828833755442,425.4138540987167,425.1670993925411,425.1671267352476,426.48660042119786,426.48660042119786,426.9839774744173,space,1,0.4891447952556973,None,,004,001,2023-11-09_18h04.24.282,untitled,2023.2.2,60.03894805962248,2023-11-09 18h04.44.728823 +0800,
1,condition_2/leftstar.PNG,left,,,,,,,,,,,,,0,6,6,16,427.0975016878863,,,,,,,,,,,,,,,,,,,,,,,,,,,,,,,,,,,,,,,,,,,,,,,,,,,,,,,,,,,,,,,,,,,,,,,,,,,,,,,,,,,,,,,,,,,,,,,,,,,,,,,,,,426.98480887297865,427.0975016878863,427.4993051647368,427.4993213900791,427.9995363758653,428.5341695193722,428.2835967497633,428.28362379200075,429.6031554685262,429.6031554685262,430.1168654321184,left,1,0.5014526188454056,None,,004,001,2023-11-09_18h04.24.282,untitled,2023.2.2,60.03894805962248,2023-11-09 18h04.44.728823 +0800,
2,condition_2/leftstar.PNG,left,,,,,,,,,,,,,0,7,7,1,430.22070071244275,,,,,,,,,,,,,,,,,,,,,,,,,,,,,,,,,,,,,,,,,,,,,,,,,,,,,,,,,,,,,,,,,,,,,,,,,,,,,,,,,,,,,,,,,,,,,,,,,,,,,,,,,,430.1174426336495,430.22070071244275,430.63351578830975,430.63355605119636,431.11667823974267,431.66144771518634,431.4011649795816,431.4012088480997,432.7208646184474,432.7208646184474,433.2014204986767,left,1,0.4636887354358805,None,,004,001,2023-11-09_18h04.24.282,untitled,2023.2.2,60.03894805962248,2023-11-09 18h04.44.728823 +0800,
8,condition_2/rightstar.PNG,space,,,,,,,,,,,,,0,8,8,23,433.32461171103137,,,,,,,,,,,,,,,,,,,,,,,,,,,,,,,,,,,,,,,,,,,,,,,,,,,,,,,,,,,,,,,,,,,,,,,,,,,,,,,,,,,,,,,,,,,,,,,,,,,,,,,,,,433.2027467701803,433.32461171103137,433.7158140299332,433.71582905339847,434.21653710931105,434.745927664419,434.50022339892666,434.5002516430411,435.8212616285375,435.8212616285375,436.2347933236922,space,1,0.4100288240201735,None,,004,001,2023-11-09_18h04.24.282,untitled,2023.2.2,60.03894805962248,2023-11-09 18h04.44.728823 +0800,
1,condition_2/rightstar.PNG,right,,,,,,,,,,,,,0,9,9,4,436.3501185501634,,,,,,,,,,,,,,,,,,,,,,,,,,,,,,,,,,,,,,,,,,,,,,,,,,,,,,,,,,,,,,,,,,,,,,,,,,,,,,,,,,,,,,,,,,,,,,,,,,,,,,,,,,436.23601983938715,436.3501185501634,436.74942212241285,436.74943774681674,437.2493717938046,437.7806889580836,437.53348054326034,437.53350397986605,438.8537757122849,438.8537757122849,439.46687280863966,right,1,0.6026876378214183,None,,004,001,2023-11-09_18h04.24.282,untitled,2023.2.2,60.03894805962248,2023-11-09 18h04.44.728823 +0800,
9,condition_2/rightstar.PNG,space,,,,,,,,,,,,,0,10,10,7,439.57139616366794,,,,,,,,,,,,,,,,,,,,,,,,,,,,,,,,,,,,,,,,,,,,,,,,,,,,,,,,,,,,,,,,,,,,,,,,,,,,,,,,,,,,,,,,,,,,,,,,,,,,,,,,,,439.46746262988154,439.57139616366794,439.98278731550795,439.9828044422584,440.48286919339307,441.0148972680429,440.76708581132857,440.7671143559123,442.0711971027547,442.0711971027547,442.56690685181184,space,1,0.48794802602196796,None,,004,001,2023-11-09_18h04.24.282,untitled,2023.2.2,60.03894805962248,2023-11-09 18h04.44.728823 +0800,
1,condition_2/leftstar.PNG,left,,,,,,,,,,,,,0,11,11,0,442.67581465490935,,,,,,,,,,,,,,,,,,,,,,,,,,,,,,,,,,,,,,,,,,,,,,,,,,,,,,,,,,,,,,,,,,,,,,,,,,,,,,,,,,,,,,,,,,,,,,,,,,,,,,,,,,442.5674801472419,442.67581465490935,443.0827831990787,443.08279912395165,443.5665742322933,444.1045708291781,443.8511448030679,443.85119047440185,445.1715081786242,445.1715081786242,445.80025011064777,left,1,0.6131223357763247,None,,004,001,2023-11-09_18h04.24.282,untitled,2023.2.2,60.03894805962248,2023-11-09 18h04.44.728823 +0800,
9,condition_2/leftstar.PNG,space,,,,,,,,,,,,,0,12,12,24,445.9045493155759,,,,,,,,,,,,,,,,,,,,,,,,,,,,,,,,,,,,,,,,,,,,,,,,,,,,,,,,,,,,,,,,,,,,,,,,,,,,,,,,,,,,,,,,,,,,,,,,,,,,,,,,,,445.80085104925365,445.9045493155759,446.3166685045371,446.31670666413856,446.7997936977765,447.3367602858905,447.0844471980786,447.084490165189,448.4199076537643,448.4199076537643,448.85017759238144,space,1,0.4278232170829597,None,,004,001,2023-11-09_18h04.24.282,untitled,2023.2.2,60.03894805962248,2023-11-09 18h04.44.728823 +0800,
2,condition_2/rightstar.PNG,left,,,,,,,,,,,,,0,13,13,5,448.9559755381931,,,,,,,,,,,,,,,,,,,,,,,,,,,,,,,,,,,,,,,,,,,,,,,,,,,,,,,,,,,,,,,,,,,,,,,,,,,,,,,,,,,,,,,,,,,,,,,,,,,,,,,,,,448.8507196390042,448.9559755381931,449.3660419208761,449.36605964856494,449.86612079406814,450.39288344465217,450.1503545387541,450.1503818814606,451.46976963319,451.46976963319,453.10030326366746,right,0,1.6273790032653324,None,452.28268813059117,004,001,2023-11-09_18h04.24.282,untitled,2023.2.2,60.03894805962248,2023-11-09 18h04.44.728823 +0800,
2,condition_2/rightstar.PNG,right,,,,,,,,,,,,,0,14,14,13,453.21036156372634,,,,,,,,,,,,,,,,,,,,,,,,,,,,,,,,,,,,,,,,,,,,,,,,,,,,,,,,,,,,,,,,,,,,,,,,,,,,,,,,,,,,,,,,,,,,,,,,,,,,,,,,,,453.100958286748,453.21036156372634,453.61624481277295,453.616263742339,454.1161088504134,454.6493255816258,454.4000754778888,454.40012024781504,455.70501876881485,455.70501876881485,456.26863337847385,right,1,0.5585432887626212,None,,004,001,2023-11-09_18h04.24.282,untitled,2023.2.2,60.03894805962248,2023-11-09 18h04.44.728823 +0800,
2,condition_2/leftstar.PNG,left,,,,,,,,,,,,,0,15,15,17,456.3896236531839,,,,,,,,,,,,,,,,,,,,,,,,,,,,,,,,,,,,,,,,,,,,,,,,,,,,,,,,,,,,,,,,,,,,,,,,,,,,,,,,,,,,,,,,,,,,,,,,,,,,,,,,,,456.2701786920991,456.3896236531839,456.7827144216551,456.7827339521598,457.28293060931856,457.8140040929927,457.56690054195633,457.5669278846631,458.8867077488328,458.8867077488328,459.4507445178624,left,1,0.5609800948100201,None,,004,001,2023-11-09_18h04.24.282,untitled,2023.2.2,60.03894805962248,2023-11-09 18h04.44.728823 +0800,
1,condition_2/rightstar.PNG,right,,,,,,,,,,,,,0,16,16,21,459.5608367709524,,,,,,,,,,,,,,,,,,,,,,,,,,,,,,,,,,,,,,,,,,,,,,,,,,,,,,,,,,,,,,,,,,,,,,,,,,,,,,,,,,,,,,,,,,,,,,,,,,,,,,,,,,459.4515879351959,459.5608367709524,459.96582402053764,459.9658390440027,460.46619374801503,460.9996583664024,460.75024210314086,460.7502697463167,462.07005081236366,462.07005081236366,462.6673429229113,right,1,0.5936369014764296,None,,004,001,2023-11-09_18h04.24.282,untitled,2023.2.2,60.03894805962248,2023-11-09 18h04.44.728823 +0800,
2,condition_2/leftstar.PNG,left,,,,,,,,,,,,,0,17,17,22,462.7836738201397,,,,,,,,,,,,,,,,,,,,,,,,,,,,,,,,,,,,,,,,,,,,,,,,,,,,,,,,,,,,,,,,,,,,,,,,,,,,,,,,,,,,,,,,,,,,,,,,,,,,,,,,,,462.66815809613036,462.7836738201397,463.1827871953203,463.1828034206626,463.68270050992646,464.215386912819,463.9668822734227,463.96690631096703,465.2866296869079,465.2866296869079,465.7672883276389,left,1,0.46461958933673486,None,,004,001,2023-11-09_18h04.24.282,untitled,2023.2.2,60.03894805962248,2023-11-09 18h04.44.728823 +0800,
2,condition_2/blank.PNG,space,,,,,,,,,,,,,0,18,18,9,465.88445843563045,,,,,,,,,,,,,,,,,,,,,,,,,,,,,,,,,,,,,,,,,,,,,,,,,,,,,,,,,,,,,,,,,,,,,,,,,,,,,,,,,,,,,,,,,,,,,,,,,,,,,,,,,,465.76813324731893,465.88445843563045,466.2829047689586,466.28292670321775,466.782774815985,467.1645658353782,467.0668309833127,467.0668538189798,468.3827942863959,468.3827942863959,469.1009850285159,space,1,0.7048499050665669,None,,004,001,2023-11-09_18h04.24.282,untitled,2023.2.2,60.03894805962248,2023-11-09 18h04.44.728823 +0800,
2,condition_2/blank.PNG,space,,,,,,,,,,,,,0,19,19,20,469.2169181043871,,,,,,,,,,,,,,,,,,,,,,,,,,,,,,,,,,,,,,,,,,,,,,,,,,,,,,,,,,,,,,,,,,,,,,,,,,,,,,,,,,,,,,,,,,,,,,,,,,,,,,,,,,469.10196335656656,469.2169181043871,469.6161162119113,469.61613153584585,470.11630625874545,470.47132095620145,470.4004420504384,470.4004739001846,471.71631971977035,471.71631971977035,472.1680515797623,space,1,0.4356423297549554,None,,004,001,2023-11-09_18h04.24.282,untitled,2023.2.2,60.03894805962248,2023-11-09 18h04.44.728823 +0800,
1,condition_2/rightstar.PNG,right,,,,,,,,,,,,,0,20,20,12,472.2899672999256,,,,,,,,,,,,,,,,,,,,,,,,,,,,,,,,,,,,,,,,,,,,,,,,,,,,,,,,,,,,,,,,,,,,,,,,,,,,,,,,,,,,,,,,,,,,,,,,,,,,,,,,,,472.16935020809,472.2899672999256,472.68284954270075,472.68286877273613,473.18281243474166,473.7267673379049,473.46688512788114,473.4669091654255,474.7916945477141,474.7916945477141,475.350273892793,right,1,0.5519978654660918,None,,004,001,2023-11-09_18h04.24.282,untitled,2023.2.2,60.03894805962248,2023-11-09 18h04.44.728823 +0800,
1,condition_2/blank.PNG,space,,,,,,,,,,,,,0,21,21,8,475.45513918188817,,,,,,,,,,,,,,,,,,,,,,,,,,,,,,,,,,,,,,,,,,,,,,,,,,,,,,,,,,,,,,,,,,,,,,,,,,,,,,,,,,,,,,,,,,,,,,,,,,,,,,,,,,475.35085049338545,475.45513918188817,475.8662295639558,475.8662493949298,476.34994998688444,476.7408978082867,476.63407315886684,476.6341086142445,477.9662774287158,477.9662774287158,478.46745061110937,space,1,0.4899819027339163,None,,004,001,2023-11-09_18h04.24.282,untitled,2023.2.2,60.03894805962248,2023-11-09 18h04.44.728823 +0800,
9,condition_2/leftstar.PNG,space,,,,,,,,,,,,,0,22,22,19,478.5826968141539,,,,,,,,,,,,,,,,,,,,,,,,,,,,,,,,,,,,,,,,,,,,,,,,,,,,,,,,,,,,,,,,,,,,,,,,,,,,,,,,,,,,,,,,,,,,,,,,,,,,,,,,,,478.46846289219116,478.5826968141539,478.98288286474644,478.98290359712837,479.48267989773217,480.0202366075573,479.7669575109362,479.766983952235,481.08666406059615,481.08666406059615,481.55004120936474,space,1,0.4568936221483,None,,004,001,2023-11-09_18h04.24.282,untitled,2023.2.2,60.03894805962248,2023-11-09 18h04.44.728823 +0800,
9,condition_2/blank.PNG,space,,,,,,,,,,,,,0,23,23,11,481.65377222684106,,,,,,,,,,,,,,,,,,,,,,,,,,,,,,,,,,,,,,,,,,,,,,,,,,,,,,,,,,,,,,,,,,,,,,,,,,,,,,,,,,,,,,,,,,,,,,,,,,,,,,,,,,481.5505571151582,481.65377222684106,482.0661269837358,482.0661444109553,482.5661313405408,482.9435604470623,482.8500904562836,482.8501319210475,484.14970011661217,484.14970011661217,484.967924601435,space,1,0.8022299028855286,None,484.94967589878615,004,001,2023-11-09_18h04.24.282,untitled,2023.2.2,60.03894805962248,2023-11-09 18h04.44.728823 +0800,
8,condition_2/rightstar.PNG,space,,,,,,,,,,,,,0,24,24,14,485.0929937469332,,,,,,,,,,,,,,,,,,,,,,,,,,,,,,,,,,,,,,,,,,,,,,,,,,,,,,,,,,,,,,,,,,,,,,,,,,,,,,,,,,,,,,,,,,,,,,,,,,,,,,,,,,484.9691306852171,485.0929937469332,485.4827378883076,485.4827541136501,485.9829681980284,486.51550526767755,486.26704990524695,486.26707724795347,487.587798782919,487.587798782919,488.0508904858498,right,0,0.46000678459677147,None,,004,001,2023-11-09_18h04.24.282,untitled,2023.2.2,60.03894805962248,2023-11-09 18h04.44.728823 +0800,
2,condition_2/rightstar.PNG,right,,,,,,,,,,,,,1,0,25,13,488.1580985341004,,,,,,,,,,,,,,,,,,,,,,,,,,,,,,,,,,,,,,,,,,,,,,,,,,,,,,,,,,,,,,,,,,,,,,,,,,,,,,,,,,,,,,,,,,,,,,,,,,,,,,,,,,488.0516050018523,488.1580985341004,488.56618692736174,488.5662091620902,489.06652780978607,489.60090916001695,489.35065398646134,489.35068763902336,490.6701811559474,490.6701811559474,491.16764113869453,right,1,0.4901672922937905,None,,004,001,2023-11-09_18h04.24.282,untitled,2023.2.2,60.03894805962248,2023-11-09 18h04.44.728823 +0800,
1,condition_2/blank.PNG,space,,,,,,,,,,,,,1,1,26,8,491.282230816312,,,,,,,,,,,,,,,,,,,,,,,,,,,,,,,,,,,,,,,,,,,,,,,,,,,,,,,,,,,,,,,,,,,,,,,,,,,,,,,,,,,,,,,,,,,,,,,,,,,,,,,,,,491.1685653822706,491.282230816312,491.6827488854842,491.682767514581,492.1832192701779,492.5842730761176,492.46772884568395,492.4677706109171,493.7827045061681,493.7827045061681,495.0339443176297,space,1,1.2410109349793856,None,494.58275510519866,004,001,2023-11-09_18h04.24.282,untitled,2023.2.2,60.03894805962248,2023-11-09 18h04.44.728823 +0800,
2,condition_2/blank.PNG,space,,,,,,,,,,,,,1,2,27,20,495.14327848666835,,,,,,,,,,,,,,,,,,,,,,,,,,,,,,,,,,,,,,,,,,,,,,,,,,,,,,,,,,,,,,,,,,,,,,,,,,,,,,,,,,,,,,,,,,,,,,,,,,,,,,,,,,495.0347787208841,495.14327848666835,495.5501523830069,495.5501917444856,496.04949540687585,496.41494149712435,496.33381508578236,496.3338427289582,497.6497261072068,497.6497261072068,498.8006037630173,space,1,1.1494822763675074,None,498.4493827909812,004,001,2023-11-09_18h04.24.282,untitled,2023.2.2,60.03894805962248,2023-11-09 18h04.44.728823 +0800,
9,condition_2/rightstar.PNG,space,,,,,,,,,,,,,1,3,28,15,498.9066159434419,,,,,,,,,,,,,,,,,,,,,,,,,,,,,,,,,,,,,,,,,,,,,,,,,,,,,,,,,,,,,,,,,,,,,,,,,,,,,,,,,,,,,,,,,,,,,,,,,,,,,,,,,,498.8014009080782,498.9066159434419,499.3161396785638,499.3161565048449,499.81617858933873,500.3577047991257,500.10031287868514,500.10033931998373,501.4265041568426,501.4265041568426,501.93359177699654,space,1,0.5024042051279594,None,,004,001,2023-11-09_18h04.24.282,untitled,2023.2.2,60.03894805962248,2023-11-09 18h04.44.728823 +0800,
9,condition_2/rightstar.PNG,space,,,,,,,,,,,,,1,4,29,7,502.0386328406337,,,,,,,,,,,,,,,,,,,,,,,,,,,,,,,,,,,,,,,,,,,,,,,,,,,,,,,,,,,,,,,,,,,,,,,,,,,,,,,,,,,,,,,,,,,,,,,,,,,,,,,,,,501.9341674761811,502.0386328406337,502.4494573073682,502.4494723308335,502.94946286605045,503.4792614584719,503.2335538878174,503.2335779253615,504.53747137654295,504.53747137654295,505.0855559298068,space,1,0.5434819644801792,None,,004,001,2023-11-09_18h04.24.282,untitled,2023.2.2,60.03894805962248,2023-11-09 18h04.44.728823 +0800,
1,condition_2/rightstar.PNG,right,,,,,,,,,,,,,1,5,30,21,505.20575777306567,,,,,,,,,,,,,,,,,,,,,,,,,,,,,,,,,,,,,,,,,,,,,,,,,,,,,,,,,,,,,,,,,,,,,,,,,,,,,,,,,,,,,,,,,,,,,,,,,,,,,,,,,,505.0872160227059,505.20575777306567,505.59947802472675,505.5994960528849,506.0994144754691,506.63071060689686,506.3837350557835,506.38376269895934,507.70363721095964,507.70363721095964,508.3502005782832,right,1,0.64075078865676,None,,004,001,2023-11-09_18h04.24.282,untitled,2023.2.2,60.03894805962248,2023-11-09 18h04.44.728823 +0800,
8,condition_2/leftstar.PNG,space,,,,,,,,,,,,,1,6,31,18,508.47935189973214,,,,,,,,,,,,,,,,,,,,,,,,,,,,,,,,,,,,,,,,,,,,,,,,,,,,,,,,,,,,,,,,,,,,,,,,,,,,,,,,,,,,,,,,,,,,,,,,,,,,,,,,,,508.3507155826685,508.47935189973214,508.86607482226486,508.8660901461992,509.3661035170833,509.89696096332864,509.65020956231524,509.6502342007982,510.95372922968386,510.95372922968386,511.6010230378829,space,1,0.6458010767019005,None,,004,001,2023-11-09_18h04.24.282,untitled,2023.2.2,60.03894805962248,2023-11-09 18h04.44.728823 +0800,
1,condition_2/rightstar.PNG,right,,,,,,,,,,,,,1,7,32,12,511.72096767941844,,,,,,,,,,,,,,,,,,,,,,,,,,,,,,,,,,,,,,,,,,,,,,,,,,,,,,,,,,,,,,,,,,,,,,,,,,,,,,,,,,,,,,,,,,,,,,,,,,,,,,,,,,511.6020091781352,511.72096767941844,512.1160352354341,512.1160517612459,512.6163003995941,513.1545256536183,512.9009995712302,512.9010431392792,514.2200739334767,514.2200739334767,514.7006625648601,right,1,0.4760806904303081,None,,004,001,2023-11-09_18h04.24.282,untitled,2023.2.2,60.03894805962248,2023-11-09 18h04.44.728823 +0800,
8,condition_2/blank.PNG,space,,,,,,,,,,,,,1,8,33,10,514.8122763945005,,,,,,,,,,,,,,,,,,,,,,,,,,,,,,,,,,,,,,,,,,,,,,,,,,,,,,,,,,,,,,,,,,,,,,,,,,,,,,,,,,,,,,,,,,,,,,,,,,,,,,,,,,514.7015101887637,514.8122763945005,515.2161344804449,515.2161516071951,515.7163488652927,516.1075782264318,516.0005492578857,516.0005808071626,517.3163286737554,517.3163286737554,517.9665075882019,space,1,0.6349382099901959,None,,004,001,2023-11-09_18h04.24.282,untitled,2023.2.2,60.03894805962248,2023-11-09 18h04.44.728823 +0800,
9,condition_2/leftstar.PNG,space,,,,,,,,,,,,,1,9,34,3,518.0780736432232,,,,,,,,,,,,,,,,,,,,,,,,,,,,,,,,,,,,,,,,,,,,,,,,,,,,,,,,,,,,,,,,,,,,,,,,,,,,,,,,,,,,,,,,,,,,,,,,,,,,,,,,,,517.9669982545738,518.0780736432232,518.4828208178353,518.4828379445855,518.9662422738074,519.5010499899793,519.2503501218553,519.2503780655004,520.5710295911183,520.5710295911183,520.9014710075667,space,1,0.3166600913966704,None,,004,001,2023-11-09_18h04.24.282,untitled,2023.2.2,60.03894805962248,2023-11-09 18h04.44.728823 +0800,
8,condition_2/leftstar.PNG,space,,,,,,,,,,,,,1,10,35,2,521.0215045880159,,,,,,,,,,,,,,,,,,,,,,,,,,,,,,,,,,,,,,,,,,,,,,,,,,,,,,,,,,,,,,,,,,,,,,,,,,,,,,,,,,,,,,,,,,,,,,,,,,,,,,,,,,520.9027801523198,521.0215045880159,521.4160793743747,521.4160968015944,521.9161450269175,522.4471292712087,522.2000885182565,522.2001113539236,523.52041433515,523.52041433515,523.9674895218841,space,1,0.4313915905252088,None,,004,001,2023-11-09_18h04.24.282,untitled,2023.2.2,60.03894805962248,2023-11-09 18h04.44.728823 +0800,
2,condition_2/leftstar.PNG,left,,,,,,,,,,,,,1,11,36,22,524.0823517251595,,,,,,,,,,,,,,,,,,,,,,,,,,,,,,,,,,,,,,,,,,,,,,,,,,,,,,,,,,,,,,,,,,,,,,,,,,,,,,,,,,,,,,,,,,,,,,,,,,,,,,,,,,523.9685255400409,524.0823517251595,524.4829100572183,524.4829307896002,524.9827440479285,525.5148778877729,525.2668266565547,525.2668491917525,526.5881223883582,526.5881223883582,527.1516666882003,left,1,0.5563994402857588,None,,004,001,2023-11-09_18h04.24.282,untitled,2023.2.2,60.03894805962248,2023-11-09 18h04.44.728823 +0800,
2,condition_2/leftstar.PNG,left,,,,,,,,,,,,,1,12,37,17,527.2782054290597,,,,,,,,,,,,,,,,,,,,,,,,,,,,,,,,,,,,,,,,,,,,,,,,,,,,,,,,,,,,,,,,,,,,,,,,,,,,,,,,,,,,,,,,,,,,,,,,,,,,,,,,,,527.1531218610346,527.2782054290597,527.6660605199261,527.6660749424525,528.1663235808007,528.6888117550802,528.450201870301,528.4502174947049,529.7716445315939,529.7716445315939,530.8672628778888,left,1,1.092516601680245,None,530.5832001002366,004,001,2023-11-09_18h04.24.282,untitled,2023.2.2,60.03894805962248,2023-11-09 18h04.44.728823 +0800,
1,condition_2/leftstar.PNG,left,,,,,,,,,,,,,1,13,38,0,530.9795650827027,,,,,,,,,,,,,,,,,,,,,,,,,,,,,,,,,,,,,,,,,,,,,,,,,,,,,,,,,,,,,,,,,,,,,,,,,,,,,,,,,,,,,,,,,,,,,,,,,,,,,,,,,,530.8681083985075,530.9795650827027,531.3831869997748,531.3832191499903,531.8830684646348,532.4168188293295,532.1673992609055,532.1674356176911,533.487764739747,533.487764739747,533.9165575712705,left,1,0.416023487084658,None,,004,001,2023-11-09_18h04.24.282,untitled,2023.2.2,60.03894805962248,2023-11-09 18h04.44.728823 +0800,
2,condition_2/leftstar.PNG,left,,,,,,,,,,,,,1,14,39,1,534.0191687396543,,,,,,,,,,,,,,,,,,,,,,,,,,,,,,,,,,,,,,,,,,,,,,,,,,,,,,,,,,,,,,,,,,,,,,,,,,,,,,,,,,,,,,,,,,,,,,,,,,,,,,,,,,533.9170470357651,534.0191687396543,534.4335657864017,534.4336063497576,534.9167123129616,535.4574071241873,535.2011813251115,535.2012275973843,536.5199816593538,536.5199816593538,537.0172277079571,left,1,0.48786599790219043,None,,004,001,2023-11-09_18h04.24.282,untitled,2023.2.2,60.03894805962248,2023-11-09 18h04.44.728823 +0800,
2,condition_2/rightstar.PNG,left,,,,,,,,,,,,,1,15,40,5,537.1346817594399,,,,,,,,,,,,,,,,,,,,,,,,,,,,,,,,,,,,,,,,,,,,,,,,,,,,,,,,,,,,,,,,,,,,,,,,,,,,,,,,,,,,,,,,,,,,,,,,,,,,,,,,,,537.0180822426548,537.1346817594399,537.5329150600321,537.5329342900675,538.0328461023271,538.566820917591,538.3170615183856,538.3170888610921,539.6371493635909,539.6371493635909,540.184375476056,right,0,0.53894007049621,None,,004,001,2023-11-09_18h04.24.282,untitled,2023.2.2,60.03894805962248,2023-11-09 18h04.44.728823 +0800,
9,condition_2/leftstar.PNG,space,,,,,,,,,,,,,1,16,41,24,540.299980138979,,,,,,,,,,,,,,,,,,,,,,,,,,,,,,,,,,,,,,,,,,,,,,,,,,,,,,,,,,,,,,,,,,,,,,,,,,,,,,,,,,,,,,,,,,,,,,,,,,,,,,,,,,540.1853510998828,540.299980138979,540.6994943402099,540.6995135702452,541.1994890819972,541.7303254953913,541.4834785451396,541.4835085920699,542.8033656768507,542.8033656768507,543.100660822138,space,1,0.2839606180893952,None,,004,001,2023-11-09_18h04.24.282,untitled,2023.2.2,60.03894805962248,2023-11-09 18h04.44.728823 +0800,
8,condition_2/rightstar.PNG,space,,,,,,,,,,,,,1,17,42,6,543.2148881337762,,,,,,,,,,,,,,,,,,,,,,,,,,,,,,,,,,,,,,,,,,,,,,,,,,,,,,,,,,,,,,,,,,,,,,,,,,,,,,,,,,,,,,,,,,,,,,,,,,,,,,,,,,543.1015129530813,543.2148881337762,543.6162670475014,543.616287479414,544.1161328879577,544.6513756836803,544.4006938437144,544.4007268953378,545.7199659147623,545.7199659147623,546.0506368897582,space,1,0.3204375914740467,None,,004,001,2023-11-09_18h04.24.282,untitled,2023.2.2,60.03894805962248,2023-11-09 18h04.44.728823 +0800,
2,condition_2/blank.PNG,space,,,,,,,,,,,,,1,18,43,9,546.1679091573128,,,,,,,,,,,,,,,,,,,,,,,,,,,,,,,,,,,,,,,,,,,,,,,,,,,,,,,,,,,,,,,,,,,,,,,,,,,,,,,,,,,,,,,,,,,,,,,,,,,,,,,,,,546.0514676873809,546.1679091573128,546.5662341010423,546.5662521292006,547.0662564860054,547.4648019742035,547.3503126533333,547.3503408974477,548.6660761443297,548.6660761443297,549.4687883004465,space,1,0.7891195257873278,None,549.4666309308509,004,001,2023-11-09_18h04.24.282,untitled,2023.2.2,60.03894805962248,2023-11-09 18h04.44.728823 +0800,
1,condition_2/leftstar.PNG,left,,,,,,,,,,,,,1,19,44,16,549.5904681522068,,,,,,,,,,,,,,,,,,,,,,,,,,,,,,,,,,,,,,,,,,,,,,,,,,,,,,,,,,,,,,,,,,,,,,,,,,,,,,,,,,,,,,,,,,,,,,,,,,,,,,,,,,549.470442984898,549.5904681522068,549.9827143014675,549.9827299258711,550.4830302449395,551.0214811514104,550.7672084028043,550.7672390506732,552.0878304824305,552.0878304824305,552.5846402496059,left,1,0.4878359509718848,None,,004,001,2023-11-09_18h04.24.282,untitled,2023.2.2,60.03894805962248,2023-11-09 18h04.44.728823 +0800,
8,condition_2/rightstar.PNG,space,,,,,,,,,,,,,1,20,45,23,552.7085120249317,,,,,,,,,,,,,,,,,,,,,,,,,,,,,,,,,,,,,,,,,,,,,,,,,,,,,,,,,,,,,,,,,,,,,,,,,,,,,,,,,,,,,,,,,,,,,,,,,,,,,,,,,,552.5858445305723,552.7085120249317,553.09944001536,553.0994574425795,553.5997754893367,554.1355392988307,553.8839806894387,553.8840152434086,555.2027161223114,555.2027161223114,555.6335446333628,space,1,0.4216921409549741,None,,004,001,2023-11-09_18h04.24.282,untitled,2023.2.2,60.03894805962248,2023-11-09 18h04.44.728823 +0800,
8,condition_2/rightstar.PNG,space,,,,,,,,,,,,,1,21,46,14,555.7415675543632,,,,,,,,,,,,,,,,,,,,,,,,,,,,,,,,,,,,,,,,,,,,,,,,,,,,,,,,,,,,,,,,,,,,,,,,,,,,,,,,,,,,,,,,,,,,,,,,,,,,,,,,,,555.6341419663372,555.7415675543632,556.1494960979553,556.1495120228283,556.6494974500672,557.1867738220326,556.9336287347207,556.9336551760193,558.2371766462036,558.2371766462036,558.8343957427105,space,1,0.5859848497368603,None,,004,001,2023-11-09_18h04.24.282,untitled,2023.2.2,60.03894805962248,2023-11-09 18h04.44.728823 +0800,
9,condition_2/blank.PNG,space,,,,,,,,,,,,,1,22,47,11,558.9507849309837,,,,,,,,,,,,,,,,,,,,,,,,,,,,,,,,,,,,,,,,,,,,,,,,,,,,,,,,,,,,,,,,,,,,,,,,,,,,,,,,,,,,,,,,,,,,,,,,,,,,,,,,,,558.8353704651295,558.9507849309837,559.3495302312681,559.3495488603648,559.8494014801718,560.2181461224286,560.1336397318971,560.1336673750732,561.4496625279023,561.4496625279023,561.7515767877849,space,1,0.29342179550235414,None,,004,001,2023-11-09_18h04.24.282,untitled,2023.2.2,60.03894805962248,2023-11-09 18h04.44.728823 +0800,
1,condition_2/rightstar.PNG,right,,,,,,,,,,,,,1,23,48,4,561.8689370928453,,,,,,,,,,,,,,,,,,,,,,,,,,,,,,,,,,,,,,,,,,,,,,,,,,,,,,,,,,,,,,,,,,,,,,,,,,,,,,,,,,,,,,,,,,,,,,,,,,,,,,,,,,561.7528306461861,561.8689370928453,562.266223013725,562.2662413423525,562.7662961780004,563.3063203417416,563.0503171904197,563.0503454345342,564.3706448101289,564.3706448101289,564.8834557695664,right,1,0.5084706803554582,None,,004,001,2023-11-09_18h04.24.282,untitled,2023.2.2,60.03894805962248,2023-11-09 18h04.44.728823 +0800,
9,condition_2/leftstar.PNG,space,,,,,,,,,,,,,1,24,49,19,564.9889307108772,,,,,,,,,,,,,,,,,,,,,,,,,,,,,,,,,,,,,,,,,,,,,,,,,,,,,,,,,,,,,,,,,,,,,,,,,,,,,,,,,,,,,,,,,,,,,,,,,,,,,,,,,,564.8839716753596,564.9889307108772,565.3995649805431,565.3995830087013,565.8829792252518,566.4181574200743,566.1670978901946,566.1671264347783,567.4873555005563,567.4873555005563,568.3669337137674,space,1,0.8731655973465422,None,568.2992773412793,004,001,2023-11-09_18h04.24.282,untitled,2023.2.2,60.03894805962248,2023-11-09 18h04.44.728823 +0800,
