stimuli,star,CorrectAns,trials_3.thisRepN,trials_3.thisTrialN,trials_3.thisN,trials_3.thisIndex,trials.thisRepN,trials.thisTrialN,trials.thisN,trials.thisIndex,trials_4.thisRepN,trials_4.thisTrialN,trials_4.thisN,trials_4.thisIndex,trials_2.thisRepN,trials_2.thisTrialN,trials_2.thisN,trials_2.thisIndex,thisRow.t,notes,routine_21.started,text_9.started,key_resp_8.started,routine_21.stopped,key_resp_8.keys,key_resp_8.rt,key_resp_8.duration,introduction.started,text_6.started,key_resp_5.started,introduction.stopped,key_resp_5.keys,key_resp_5.rt,key_resp_5.duration,routine_14.started,image_6.started,routine_14.stopped,routine_16.started,text_4.started,text_4.stopped,routine_16.stopped,routine_17.started,image_7.started,key_resp_3.started,routine_17.stopped,key_resp_3.keys,key_resp_3.rt,key_resp_3.duration,image_7.stopped,routine_20.started,text_8.started,key_resp_7.started,routine_20.stopped,key_resp_7.keys,key_resp_7.rt,key_resp_7.duration,routine_18.started,text_5.started,key_resp_4.started,routine_18.stopped,key_resp_4.keys,key_resp_4.rt,key_resp_4.duration,trial.started,image_3.started,trial.stopped,routine.started,text_3.started,text_3.stopped,routine.stopped,routine_1.started,image_2.started,key_resp.started,routine_1.stopped,key_resp.keys,key_resp.corr,key_resp.rt,key_resp.duration,image_2.stopped,routine_22.started,text_10.started,key_resp_9.started,routine_22.stopped,key_resp_9.keys,key_resp_9.rt,key_resp_9.duration,routine_19.started,text_7.started,key_resp_6.started,routine_19.stopped,key_resp_6.keys,key_resp_6.rt,key_resp_6.duration,routine_23.started,image_8.started,routine_23.stopped,routine_24.started,text_11.started,text_11.stopped,routine_24.stopped,routine_25.started,image_9.started,key_resp_10.started,routine_25.stopped,key_resp_10.keys,key_resp_10.rt,key_resp_10.duration,routine_26.started,text_12.started,key_resp_11.started,text_12.stopped,routine_26.stopped,key_resp_11.keys,key_resp_11.rt,key_resp_11.duration,routine_27.started,text_13.started,key_resp_12.started,text_13.stopped,routine_27.stopped,key_resp_12.keys,key_resp_12.rt,key_resp_12.duration,routine_10.started,image_4.started,routine_10.stopped,routine_11.started,text.started,text.stopped,routine_11.stopped,routine_12.started,image_5.started,key_resp_2.started,routine_12.stopped,key_resp_2.keys,key_resp_2.corr,key_resp_2.rt,key_resp_2.duration,image_5.stopped,participant,session,date,expName,psychopyVersion,frameRate,expStart,
,,,,,,,,,,,,,,,,,,,,,0.018417700000100012,0.027969100000063918,0.027969100000063918,11.025090500000033,space,10.996318099999826,None,,,,,,,,,,,,,,,,,,,,,,,,,,,,,,,,,,,,,,,,,,,,,,,,,,,,,,,,,,,,,,,,,,,,,,,,,,,,,,,,,,,,,,,,,,,,,,,,,,,,,,,,,,,,,,,,,005,001,2023-11-11_13h49.43.709,untitled,2023.2.3,271.52736860194943,2023-11-11 13h49.55.145240 +0800,
,,,,,,,,,,,,,,,,,,,,,,,,,,,,11.025114699999904,11.031040099999927,11.031040099999927,56.9349995,space,45.902433599999995,None,,,,,,,,,,,,,,,,,,,,,,,,,,,,,,,,,,,,,,,,,,,,,,,,,,,,,,,,,,,,,,,,,,,,,,,,,,,,,,,,,,,,,,,,,,,,,,,,,,,,,,,,,,005,001,2023-11-11_13h49.43.709,untitled,2023.2.3,271.52736860194943,2023-11-11 13h49.55.145240 +0800,
8,test/rightstar.PNG,right,0,0,0,1,,,,,,,,,,,,,57.02217100000007,,,,,,,,,,,,,,,,56.93981329999997,57.02217100000007,57.43755620000002,57.43756690000009,57.933966600000076,58.39649589999999,58.23109210000007,58.23110120000001,59.5620057000001,59.5620057000001,60.27105269999993,right,0.7057355000001735,None,,,,,,,,,,,,,,,,,,,,,,,,,,,,,,,,,,,,,,,,,,,,,,,,,,,,,,,,,,,,,,,,,,,,,,,,,,,,,,,,,,,,,,,,,,,,005,001,2023-11-11_13h49.43.709,untitled,2023.2.3,271.52736860194943,2023-11-11 13h49.55.145240 +0800,
9,test/rightstar.PNG,right,0,1,1,3,,,,,,,,,,,,,60.33950909999999,,,,,,,,,,,,,,,,60.2714747,60.33950909999999,60.77402910000001,60.77403929999991,61.27062049999995,61.73392029999991,61.567518300000074,61.56752950000009,62.87872289999996,62.87872289999996,63.36804230000007,right,0.48322619999999006,None,,,,,,,,,,,,,,,,,,,,,,,,,,,,,,,,,,,,,,,,,,,,,,,,,,,,,,,,,,,,,,,,,,,,,,,,,,,,,,,,,,,,,,,,,,,,005,001,2023-11-11_13h49.43.709,untitled,2023.2.3,271.52736860194943,2023-11-11 13h49.55.145240 +0800,
1,test/blank.PNG,space,0,2,2,2,,,,,,,,,,,,,63.43814100000009,,,,,,,,,,,,,,,,63.36841709999999,63.43814100000009,63.87430969999991,63.87432080000008,64.36737440000002,64.7004151000001,64.66442940000002,64.66443920000006,66.07007610000005,66.07007610000005,67.59793130000003,space,1.524551400000064,None,66.8710043000001,,,,,,,,,,,,,,,,,,,,,,,,,,,,,,,,,,,,,,,,,,,,,,,,,,,,,,,,,,,,,,,,,,,,,,,,,,,,,,,,,,,,,,,,,,,005,001,2023-11-11_13h49.43.709,untitled,2023.2.3,271.52736860194943,2023-11-11 13h49.55.145240 +0800,
2,test/leftstar.PNG,space,0,3,3,4,,,,,,,,,,,,,67.66827760000001,,,,,,,,,,,,,,,,67.59825210000008,67.66827760000001,68.1011238000001,68.10113490000003,68.59745509999993,69.07435450000003,68.89408299999991,68.8940935999999,70.24291689999995,70.24291689999995,71.06464699999992,left,0.8187215000000378,None,71.04409450000003,,,,,,,,,,,,,,,,,,,,,,,,,,,,,,,,,,,,,,,,,,,,,,,,,,,,,,,,,,,,,,,,,,,,,,,,,,,,,,,,,,,,,,,,,,,005,001,2023-11-11_13h49.43.709,untitled,2023.2.3,271.52736860194943,2023-11-11 13h49.55.145240 +0800,
8,test/leftstar.PNG,left,0,4,4,5,,,,,,,,,,,,,71.14104610000004,,,,,,,,,,,,,,,,71.06497760000002,71.14104610000004,71.56743129999995,71.56744040000012,72.06371919999992,72.53572929999996,72.3608865000001,72.36089530000004,73.6717286999999,73.6717286999999,74.36131169999999,left,0.6863737999999557,None,,,,,,,,,,,,,,,,,,,,,,,,,,,,,,,,,,,,,,,,,,,,,,,,,,,,,,,,,,,,,,,,,,,,,,,,,,,,,,,,,,,,,,,,,,,,005,001,2023-11-11_13h49.43.709,untitled,2023.2.3,271.52736860194943,2023-11-11 13h49.55.145240 +0800,
1,test/leftstar.PNG,space,0,5,5,0,,,,,,,,,,,,,74.43050530000005,,,,,,,,,,,,,,,,74.36162880000006,74.43050530000005,74.86398940000004,74.86399890000007,75.36072179999996,75.8216754,75.65769730000011,75.65770629999997,76.96819299999993,76.96819299999993,77.44493919999991,left,0.47067489999994905,None,,,,,,,,,,,,,,,,,,,,,,,,,,,,,,,,,,,,,,,,,,,,,,,,,,,,,,,,,,,,,,,,,,,,,,,,,,,,,,,,,,,,,,,,,,,,005,001,2023-11-11_13h49.43.709,untitled,2023.2.3,271.52736860194943,2023-11-11 13h49.55.145240 +0800,
,,,,,,,,,,,,,,,,,,,,,,,,,,,,,,,,,,,,,,,,,,,,,,,,,,77.44519500000001,77.45085270000004,77.45085270000004,104.81118650000008,space,27.3583079,None,,,,,,,,,,,,,,,,,,,,,,,,,,,,,,,,,,,,,,,,,,,,,,,,,,,,,,,,,,,,,,,,,,,,,,,,,,,,,,,,,,,,005,001,2023-11-11_13h49.43.709,untitled,2023.2.3,271.52736860194943,2023-11-11 13h49.55.145240 +0800,
,,,,,,,,,,,,,,,,,,,,,,,,,,,,,,,,,,,,,,,,,,,,,,,,,,,,,,,,,104.81121120000012,104.8175162,104.8175162,115.70192410000004,space,10.883727800000088,None,,,,,,,,,,,,,,,,,,,,,,,,,,,,,,,,,,,,,,,,,,,,,,,,,,,,,,,,,,,,,,,,,,,,,,,,,,,,,005,001,2023-11-11_13h49.43.709,untitled,2023.2.3,271.52736860194943,2023-11-11 13h49.55.145240 +0800,
9,condition_1/leftstar.PNG,left,,,,,0,0,0,3,,,,,,,,,115.78071130000012,,,,,,,,,,,,,,,,,,,,,,,,,,,,,,,,,,,,,,,,,,,,,115.70735209999998,115.78071130000012,116.20401470000002,116.20402600000011,116.7007094999999,117.17605329999992,116.9974592000001,116.99746890000006,118.3198155,118.3198155,118.80135919999998,left,1,0.4792631000000256,None,,,,,,,,,,,,,,,,,,,,,,,,,,,,,,,,,,,,,,,,,,,,,,,,,,,,,,,,,,,,,,005,001,2023-11-11_13h49.43.709,untitled,2023.2.3,271.52736860194943,2023-11-11 13h49.55.145240 +0800,
8,condition_1/leftstar.PNG,left,,,,,0,1,1,18,,,,,,,,,118.87250749999998,,,,,,,,,,,,,,,,,,,,,,,,,,,,,,,,,,,,,,,,,,,,,118.80187350000006,118.87250749999998,119.30393200000003,119.30394279999996,119.80028119999997,120.28544080000006,120.09751830000005,120.09752900000012,121.40983729999994,121.40983729999994,121.86264630000005,left,1,0.4488317000000279,None,,,,,,,,,,,,,,,,,,,,,,,,,,,,,,,,,,,,,,,,,,,,,,,,,,,,,,,,,,,,,,005,001,2023-11-11_13h49.43.709,untitled,2023.2.3,271.52736860194943,2023-11-11 13h49.55.145240 +0800,
8,condition_1/blank.PNG,space,,,,,0,2,2,10,,,,,,,,,121.94151809999994,,,,,,,,,,,,,,,,,,,,,,,,,,,,,,,,,,,,,,,,,,,,,121.86304229999996,121.94151809999994,122.36402550000003,122.36403670000004,122.86392120000005,123.19651999999996,123.16107590000001,123.16108540000005,124.54906559999995,124.54906559999995,125.84825799999999,space,1,1.2981555000001208,None,125.3505318,,,,,,,,,,,,,,,,,,,,,,,,,,,,,,,,,,,,,,,,,,,,,,,,,,,,,,,,,,,,,005,001,2023-11-11_13h49.43.709,untitled,2023.2.3,271.52736860194943,2023-11-11 13h49.55.145240 +0800,
9,condition_1/leftstar.PNG,left,,,,,0,3,3,19,,,,,,,,,125.91865729999995,,,,,,,,,,,,,,,,,,,,,,,,,,,,,,,,,,,,,,,,,,,,,125.8487239000001,125.91865729999995,126.35101209999993,126.3510240999999,126.84793889999992,127.30510060000006,127.1444856999999,127.14449940000009,128.4993300000001,128.4993300000001,128.9284282000001,left,1,0.4282318000000487,None,,,,,,,,,,,,,,,,,,,,,,,,,,,,,,,,,,,,,,,,,,,,,,,,,,,,,,,,,,,,,,005,001,2023-11-11_13h49.43.709,untitled,2023.2.3,271.52736860194943,2023-11-11 13h49.55.145240 +0800,
8,condition_1/blank.PNG,space,,,,,0,4,4,24,,,,,,,,,128.99729219999995,,,,,,,,,,,,,,,,,,,,,,,,,,,,,,,,,,,,,,,,,,,,,128.92880590000004,128.99729219999995,129.4312339999999,129.4312445999999,129.93120950000002,130.2635484,130.22794210000006,130.2279529,131.6130384999999,131.6130384999999,132.85517460000005,space,1,1.2411333000000013,None,132.4142988000001,,,,,,,,,,,,,,,,,,,,,,,,,,,,,,,,,,,,,,,,,,,,,,,,,,,,,,,,,,,,,005,001,2023-11-11_13h49.43.709,untitled,2023.2.3,271.52736860194943,2023-11-11 13h49.55.145240 +0800,
2,condition_1/rightstar.PNG,space,,,,,0,5,5,5,,,,,,,,,132.9310097,,,,,,,,,,,,,,,,,,,,,,,,,,,,,,,,,,,,,,,,,,,,,132.85561729999995,132.9310097,133.3573414,133.35735180000006,133.85446150000007,134.31524480000007,134.1509129000001,134.15092329999993,135.50833179999995,135.50833179999995,136.17134220000003,space,1,0.6605362000000241,None,,,,,,,,,,,,,,,,,,,,,,,,,,,,,,,,,,,,,,,,,,,,,,,,,,,,,,,,,,,,,,005,001,2023-11-11_13h49.43.709,untitled,2023.2.3,271.52736860194943,2023-11-11 13h49.55.145240 +0800,
9,condition_1/rightstar.PNG,right,,,,,0,6,6,7,,,,,,,,,136.2383069,,,,,,,,,,,,,,,,,,,,,,,,,,,,,,,,,,,,,,,,,,,,,136.17170639999995,136.2383069,136.6741136999999,136.67412330000002,137.1705922000001,137.63018699999998,137.47148919999995,137.47150030000012,138.7834087000001,138.7834087000001,139.1809435,right,1,0.39612850000003164,None,,,,,,,,,,,,,,,,,,,,,,,,,,,,,,,,,,,,,,,,,,,,,,,,,,,,,,,,,,,,,,005,001,2023-11-11_13h49.43.709,untitled,2023.2.3,271.52736860194943,2023-11-11 13h49.55.145240 +0800,
1,condition_1/blank.PNG,space,,,,,0,7,7,8,,,,,,,,,139.24950239999998,,,,,,,,,,,,,,,,,,,,,,,,,,,,,,,,,,,,,,,,,,,,,139.1813072,139.24950239999998,139.68396159999998,139.68397359999994,140.181108,140.51263519999998,140.4775631,140.477574,141.86441149999996,141.86441149999996,144.18789889999994,space,1,2.320641900000055,None,142.66412530000002,,,,,,,,,,,,,,,,,,,,,,,,,,,,,,,,,,,,,,,,,,,,,,,,,,,,,,,,,,,,,005,001,2023-11-11_13h49.43.709,untitled,2023.2.3,271.52736860194943,2023-11-11 13h49.55.145240 +0800,
2,condition_1/blank.PNG,space,,,,,0,8,8,9,,,,,,,,,144.2570548000001,,,,,,,,,,,,,,,,,,,,,,,,,,,,,,,,,,,,,,,,,,,,,144.18825820000006,144.2570548000001,144.69055359999993,144.69056460000002,145.18735270000002,145.52116350000006,145.48417930000005,145.48418900000001,146.7901819000001,146.7901819000001,147.7212930999999,space,1,0.9285284999998566,None,147.59061580000002,,,,,,,,,,,,,,,,,,,,,,,,,,,,,,,,,,,,,,,,,,,,,,,,,,,,,,,,,,,,,005,001,2023-11-11_13h49.43.709,untitled,2023.2.3,271.52736860194943,2023-11-11 13h49.55.145240 +0800,
1,condition_1/leftstar.PNG,space,,,,,0,9,9,16,,,,,,,,,147.7914639999999,,,,,,,,,,,,,,,,,,,,,,,,,,,,,,,,,,,,,,,,,,,,,147.72164930000008,147.7914639999999,148.22393379999994,148.2239439,148.7207080999999,149.17818269999998,149.0176343999999,149.0176437,150.37097360000007,150.37097360000007,150.8714113000001,left,0,0.496687300000076,None,,,,,,,,,,,,,,,,,,,,,,,,,,,,,,,,,,,,,,,,,,,,,,,,,,,,,,,,,,,,,,005,001,2023-11-11_13h49.43.709,untitled,2023.2.3,271.52736860194943,2023-11-11 13h49.55.145240 +0800,
9,condition_1/rightstar.PNG,right,,,,,0,10,10,15,,,,,,,,,150.9414167,,,,,,,,,,,,,,,,,,,,,,,,,,,,,,,,,,,,,,,,,,,,,150.87177810000003,150.9414167,151.37426860000005,151.37427939999998,151.87056589999997,152.33989889999998,152.1675858000001,152.16759610000008,153.49741820000008,153.49741820000008,153.8946344000001,right,1,0.3964548999999806,None,,,,,,,,,,,,,,,,,,,,,,,,,,,,,,,,,,,,,,,,,,,,,,,,,,,,,,,,,,,,,,005,001,2023-11-11_13h49.43.709,untitled,2023.2.3,271.52736860194943,2023-11-11 13h49.55.145240 +0800,
1,condition_1/leftstar.PNG,space,,,,,0,11,11,0,,,,,,,,,153.96647140000005,,,,,,,,,,,,,,,,,,,,,,,,,,,,,,,,,,,,,,,,,,,,,153.8950354000001,153.96647140000005,154.39728379999997,154.39729390000002,154.89412700000003,155.34613530000001,155.1909631000001,155.1909748999999,156.5040254999999,156.5040254999999,157.20167340000012,space,1,0.6901103000000148,None,,,,,,,,,,,,,,,,,,,,,,,,,,,,,,,,,,,,,,,,,,,,,,,,,,,,,,,,,,,,,,005,001,2023-11-11_13h49.43.709,untitled,2023.2.3,271.52736860194943,2023-11-11 13h49.55.145240 +0800,
2,condition_1/leftstar.PNG,space,,,,,0,12,12,1,,,,,,,,,157.27014630000008,,,,,,,,,,,,,,,,,,,,,,,,,,,,,,,,,,,,,,,,,,,,,157.20210889999998,157.27014630000008,157.70391480000012,157.70392549999997,158.20394439999995,158.66031909999992,158.50048970000012,158.50049949999993,159.8115929999999,159.8115929999999,160.27128749999997,space,1,0.4545049000000745,None,,,,,,,,,,,,,,,,,,,,,,,,,,,,,,,,,,,,,,,,,,,,,,,,,,,,,,,,,,,,,,005,001,2023-11-11_13h49.43.709,untitled,2023.2.3,271.52736860194943,2023-11-11 13h49.55.145240 +0800,
8,condition_1/leftstar.PNG,left,,,,,0,13,13,2,,,,,,,,,160.3392252000001,,,,,,,,,,,,,,,,,,,,,,,,,,,,,,,,,,,,,,,,,,,,,160.27170730000012,160.3392252000001,160.77397960000008,160.7739904,161.27058319999992,161.72639389999995,161.56748100000004,161.56749209999998,162.880543,162.880543,163.3817512999999,left,1,0.49999780000007377,None,,,,,,,,,,,,,,,,,,,,,,,,,,,,,,,,,,,,,,,,,,,,,,,,,,,,,,,,,,,,,,005,001,2023-11-11_13h49.43.709,untitled,2023.2.3,271.52736860194943,2023-11-11 13h49.55.145240 +0800,
9,condition_1/leftstar.PNG,left,,,,,0,14,14,20,,,,,,,,,163.45245509999995,,,,,,,,,,,,,,,,,,,,,,,,,,,,,,,,,,,,,,,,,,,,,163.38218759999995,163.45245509999995,163.88758639999992,163.8875981000001,164.38368379999997,164.84147699999994,164.68096760000003,164.68097880000005,165.9920621000001,165.9920621000001,166.40103160000012,left,1,0.4066842000001998,None,,,,,,,,,,,,,,,,,,,,,,,,,,,,,,,,,,,,,,,,,,,,,,,,,,,,,,,,,,,,,,005,001,2023-11-11_13h49.43.709,untitled,2023.2.3,271.52736860194943,2023-11-11 13h49.55.145240 +0800,
2,condition_1/rightstar.PNG,space,,,,,0,15,15,13,,,,,,,,,166.4699392,,,,,,,,,,,,,,,,,,,,,,,,,,,,,,,,,,,,,,,,,,,,,166.40141560000006,166.4699392,166.90406329999996,166.90407320000008,167.40082540000003,167.85985140000003,167.69768120000003,167.6976924999999,169.0083122000001,169.0083122000001,169.54481770000007,space,1,0.5340318000000934,None,,,,,,,,,,,,,,,,,,,,,,,,,,,,,,,,,,,,,,,,,,,,,,,,,,,,,,,,,,,,,,005,001,2023-11-11_13h49.43.709,untitled,2023.2.3,271.52736860194943,2023-11-11 13h49.55.145240 +0800,
8,condition_1/rightstar.PNG,right,,,,,0,16,16,14,,,,,,,,,169.619148,,,,,,,,,,,,,,,,,,,,,,,,,,,,,,,,,,,,,,,,,,,,,169.5451986999999,169.619148,170.0474346000001,170.04744630000005,170.5438534,171.01051540000003,170.84435940000003,170.84437200000002,172.15304059999994,172.15304059999994,172.46465990000002,right,1,0.3109443000000738,None,,,,,,,,,,,,,,,,,,,,,,,,,,,,,,,,,,,,,,,,,,,,,,,,,,,,,,,,,,,,,,005,001,2023-11-11_13h49.43.709,untitled,2023.2.3,271.52736860194943,2023-11-11 13h49.55.145240 +0800,
1,condition_1/leftstar.PNG,space,,,,,0,17,17,22,,,,,,,,,172.53353990000005,,,,,,,,,,,,,,,,,,,,,,,,,,,,,,,,,,,,,,,,,,,,,172.46501940000007,172.53353990000005,172.96732969999994,172.96734119999996,173.4641031000001,173.9271523,173.76086510000005,173.7608755000001,175.07154579999997,175.07154579999997,175.49816490000012,space,1,0.4203863000000183,None,,,,,,,,,,,,,,,,,,,,,,,,,,,,,,,,,,,,,,,,,,,,,,,,,,,,,,,,,,,,,,005,001,2023-11-11_13h49.43.709,untitled,2023.2.3,271.52736860194943,2023-11-11 13h49.55.145240 +0800,
9,condition_1/blank.PNG,space,,,,,0,18,18,11,,,,,,,,,175.5735697,,,,,,,,,,,,,,,,,,,,,,,,,,,,,,,,,,,,,,,,,,,,,175.49857739999993,175.5735697,176.00056870000003,176.0005802999999,176.49729180000008,176.8305236000001,176.79437729999995,176.79438679999998,178.2808872999999,178.2808872999999,179.42790579999996,space,1,1.1453146999999717,None,179.0807436,,,,,,,,,,,,,,,,,,,,,,,,,,,,,,,,,,,,,,,,,,,,,,,,,,,,,,,,,,,,,005,001,2023-11-11_13h49.43.709,untitled,2023.2.3,271.52736860194943,2023-11-11 13h49.55.145240 +0800,
8,condition_1/rightstar.PNG,right,,,,,0,19,19,6,,,,,,,,,179.49751859999992,,,,,,,,,,,,,,,,,,,,,,,,,,,,,,,,,,,,,,,,,,,,,179.4283322000001,179.49751859999992,179.9310926999999,179.93110350000006,180.42761700000005,180.8841299999999,180.7242154999999,180.7242272000001,182.07718999999997,182.07718999999997,182.52112030000012,right,1,0.4416473999999653,None,,,,,,,,,,,,,,,,,,,,,,,,,,,,,,,,,,,,,,,,,,,,,,,,,,,,,,,,,,,,,,005,001,2023-11-11_13h49.43.709,untitled,2023.2.3,271.52736860194943,2023-11-11 13h49.55.145240 +0800,
2,condition_1/rightstar.PNG,space,,,,,0,20,20,21,,,,,,,,,182.58808369999997,,,,,,,,,,,,,,,,,,,,,,,,,,,,,,,,,,,,,,,,,,,,,182.52147689999993,182.58808369999997,183.02747139999997,183.02748330000009,183.52046569999993,183.97920739999995,183.81756859999996,183.81758190000005,185.12821239999994,185.12821239999994,186.47772269999996,space,1,1.346539200000052,None,185.92730129999995,,,,,,,,,,,,,,,,,,,,,,,,,,,,,,,,,,,,,,,,,,,,,,,,,,,,,,,,,,,,,005,001,2023-11-11_13h49.43.709,untitled,2023.2.3,271.52736860194943,2023-11-11 13h49.55.145240 +0800,
2,condition_1/leftstar.PNG,space,,,,,0,21,21,17,,,,,,,,,186.5464019000001,,,,,,,,,,,,,,,,,,,,,,,,,,,,,,,,,,,,,,,,,,,,,186.4780929000001,186.5464019000001,186.9809052999999,186.98091580000005,187.4776342,187.93844480000007,187.77399530000002,187.774005,189.0882795,189.0882795,189.82448620000014,space,1,0.7263394000001426,None,,,,,,,,,,,,,,,,,,,,,,,,,,,,,,,,,,,,,,,,,,,,,,,,,,,,,,,,,,,,,,005,001,2023-11-11_13h49.43.709,untitled,2023.2.3,271.52736860194943,2023-11-11 13h49.55.145240 +0800,
1,condition_1/rightstar.PNG,space,,,,,0,22,22,12,,,,,,,,,189.89348280000013,,,,,,,,,,,,,,,,,,,,,,,,,,,,,,,,,,,,,,,,,,,,,189.82488550000016,189.89348280000013,190.32732309999983,190.32733300000018,190.82408619999978,191.27946250000014,191.12096239999983,191.1209743999998,192.4318419000001,192.4318419000001,193.21144529999992,space,1,0.7784090000000106,None,,,,,,,,,,,,,,,,,,,,,,,,,,,,,,,,,,,,,,,,,,,,,,,,,,,,,,,,,,,,,,005,001,2023-11-11_13h49.43.709,untitled,2023.2.3,271.52736860194943,2023-11-11 13h49.55.145240 +0800,
1,condition_1/rightstar.PNG,space,,,,,0,23,23,4,,,,,,,,,193.28010249999988,,,,,,,,,,,,,,,,,,,,,,,,,,,,,,,,,,,,,,,,,,,,,193.21185090000017,193.28010249999988,193.71421409999994,193.71422389999998,194.21069100000022,194.6691907999998,194.50787660000015,194.50788760000023,195.81818410000005,195.81818410000005,196.69535580000002,space,1,0.875942600000144,None,196.62159819999988,,,,,,,,,,,,,,,,,,,,,,,,,,,,,,,,,,,,,,,,,,,,,,,,,,,,,,,,,,,,,005,001,2023-11-11_13h49.43.709,untitled,2023.2.3,271.52736860194943,2023-11-11 13h49.55.145240 +0800,
8,condition_1/rightstar.PNG,right,,,,,0,24,24,23,,,,,,,,,196.76767960000006,,,,,,,,,,,,,,,,,,,,,,,,,,,,,,,,,,,,,,,,,,,,,196.69575669999995,196.76767960000006,197.19735059999994,197.19736190000003,197.6938828000002,198.15442410000014,197.99079140000003,197.99080129999993,199.30480369999987,199.30480369999987,199.80472139999983,right,1,0.4983756000001449,None,,,,,,,,,,,,,,,,,,,,,,,,,,,,,,,,,,,,,,,,,,,,,,,,,,,,,,,,,,,,,,005,001,2023-11-11_13h49.43.709,untitled,2023.2.3,271.52736860194943,2023-11-11 13h49.55.145240 +0800,
8,condition_1/leftstar.PNG,left,,,,,1,0,25,2,,,,,,,,,199.87824890000002,,,,,,,,,,,,,,,,,,,,,,,,,,,,,,,,,,,,,,,,,,,,,199.80515289999994,199.87824890000002,200.3071613000002,200.3071716999998,200.80390020000004,201.26750679999986,201.10077180000008,201.10078169999997,202.41229680000015,202.41229680000015,202.88984870000013,left,1,0.47095179999996617,None,,,,,,,,,,,,,,,,,,,,,,,,,,,,,,,,,,,,,,,,,,,,,,,,,,,,,,,,,,,,,,005,001,2023-11-11_13h49.43.709,untitled,2023.2.3,271.52736860194943,2023-11-11 13h49.55.145240 +0800,
9,condition_1/leftstar.PNG,left,,,,,1,1,26,19,,,,,,,,,203.08057069999995,,,,,,,,,,,,,,,,,,,,,,,,,,,,,,,,,,,,,,,,,,,,,202.89026289999993,203.08057069999995,203.39059420000012,203.39060440000003,203.8906591,204.37626610000007,204.18751840000004,204.1875282000001,205.4992040000002,205.4992040000002,205.86880280000014,left,1,0.36790449999989505,None,,,,,,,,,,,,,,,,,,,,,,,,,,,,,,,,,,,,,,,,,,,,,,,,,,,,,,,,,,,,,,005,001,2023-11-11_13h49.43.709,untitled,2023.2.3,271.52736860194943,2023-11-11 13h49.55.145240 +0800,
1,condition_1/leftstar.PNG,space,,,,,1,2,27,0,,,,,,,,,205.94137839999985,,,,,,,,,,,,,,,,,,,,,,,,,,,,,,,,,,,,,,,,,,,,,205.86921570000004,205.94137839999985,206.37422479999987,206.37423679999984,206.87056350000012,207.32608630000004,207.16782169999988,207.16783239999995,208.4784338999998,208.4784338999998,208.95150190000004,space,1,0.4683188999997583,None,,,,,,,,,,,,,,,,,,,,,,,,,,,,,,,,,,,,,,,,,,,,,,,,,,,,,,,,,,,,,,005,001,2023-11-11_13h49.43.709,untitled,2023.2.3,271.52736860194943,2023-11-11 13h49.55.145240 +0800,
2,condition_1/rightstar.PNG,space,,,,,1,3,28,21,,,,,,,,,209.02479549999998,,,,,,,,,,,,,,,,,,,,,,,,,,,,,,,,,,,,,,,,,,,,,208.95188289999987,209.02479549999998,209.4539110999999,209.45392129999982,209.9507337,210.40732590000016,210.2473632000001,210.24737390000018,211.55780640000012,211.55780640000012,212.16765609999993,space,1,0.6091544999999314,None,,,,,,,,,,,,,,,,,,,,,,,,,,,,,,,,,,,,,,,,,,,,,,,,,,,,,,,,,,,,,,005,001,2023-11-11_13h49.43.709,untitled,2023.2.3,271.52736860194943,2023-11-11 13h49.55.145240 +0800,
8,condition_1/leftstar.PNG,left,,,,,1,4,29,18,,,,,,,,,212.23628640000015,,,,,,,,,,,,,,,,,,,,,,,,,,,,,,,,,,,,,,,,,,,,,212.16810269999996,212.23628640000015,212.67318000000023,212.67319099999986,213.16824080000015,213.62455330000012,213.4641191999999,213.46412969999983,214.7750919,214.7750919,215.1513662000002,left,1,0.36871179999980086,None,,,,,,,,,,,,,,,,,,,,,,,,,,,,,,,,,,,,,,,,,,,,,,,,,,,,,,,,,,,,,,005,001,2023-11-11_13h49.43.709,untitled,2023.2.3,271.52736860194943,2023-11-11 13h49.55.145240 +0800,
2,condition_1/rightstar.PNG,space,,,,,1,5,30,13,,,,,,,,,215.22044779999987,,,,,,,,,,,,,,,,,,,,,,,,,,,,,,,,,,,,,,,,,,,,,215.15174509999997,215.22044779999987,215.65728850000005,215.6572983000001,216.1507418000001,216.61890970000013,216.4477648000002,216.44777479999993,217.7586268,217.7586268,218.1381597999998,space,1,0.3772099999996499,None,,,,,,,,,,,,,,,,,,,,,,,,,,,,,,,,,,,,,,,,,,,,,,,,,,,,,,,,,,,,,,005,001,2023-11-11_13h49.43.709,untitled,2023.2.3,271.52736860194943,2023-11-11 13h49.55.145240 +0800,
2,condition_1/blank.PNG,space,,,,,1,6,31,9,,,,,,,,,218.20660910000015,,,,,,,,,,,,,,,,,,,,,,,,,,,,,,,,,,,,,,,,,,,,,218.13854230000015,218.20660910000015,218.64104690000022,218.6410575,219.13723310000023,219.47020620000012,219.43426150000005,219.4342740000002,220.8392571999998,220.8392571999998,222.1279887999999,space,1,1.2871479999998883,None,221.6406053999999,,,,,,,,,,,,,,,,,,,,,,,,,,,,,,,,,,,,,,,,,,,,,,,,,,,,,,,,,,,,,005,001,2023-11-11_13h49.43.709,untitled,2023.2.3,271.52736860194943,2023-11-11 13h49.55.145240 +0800,
1,condition_1/rightstar.PNG,space,,,,,1,7,32,12,,,,,,,,,222.19845020000002,,,,,,,,,,,,,,,,,,,,,,,,,,,,,,,,,,,,,,,,,,,,,222.12835480000012,222.19845020000002,222.63050609999982,222.63051499999983,223.1269628,223.58713320000015,223.42774109999982,223.42775389999997,224.78904109999985,224.78904109999985,225.33797080000022,space,1,0.5457234000000426,None,,,,,,,,,,,,,,,,,,,,,,,,,,,,,,,,,,,,,,,,,,,,,,,,,,,,,,,,,,,,,,005,001,2023-11-11_13h49.43.709,untitled,2023.2.3,271.52736860194943,2023-11-11 13h49.55.145240 +0800,
8,condition_1/blank.PNG,space,,,,,1,8,33,10,,,,,,,,,225.40692750000017,,,,,,,,,,,,,,,,,,,,,,,,,,,,,,,,,,,,,,,,,,,,,225.33838000000014,225.40692750000017,225.84045749999996,225.84047169999985,226.33754110000018,226.66844300000002,226.63420640000004,226.6342184,228.03930249999985,228.03930249999985,229.16111520000004,space,1,1.1196696000001793,None,228.84044790000007,,,,,,,,,,,,,,,,,,,,,,,,,,,,,,,,,,,,,,,,,,,,,,,,,,,,,,,,,,,,,005,001,2023-11-11_13h49.43.709,untitled,2023.2.3,271.52736860194943,2023-11-11 13h49.55.145240 +0800,
8,condition_1/rightstar.PNG,right,,,,,1,9,34,14,,,,,,,,,229.22914219999984,,,,,,,,,,,,,,,,,,,,,,,,,,,,,,,,,,,,,,,,,,,,,229.16148789999988,229.22914219999984,229.66387489999988,229.66388559999996,230.1606095000002,230.63501439999982,230.45805520000022,230.4580692999998,231.80565879999995,231.80565879999995,232.2246381,right,1,0.4177591000002394,None,,,,,,,,,,,,,,,,,,,,,,,,,,,,,,,,,,,,,,,,,,,,,,,,,,,,,,,,,,,,,,005,001,2023-11-11_13h49.43.709,untitled,2023.2.3,271.52736860194943,2023-11-11 13h49.55.145240 +0800,
1,condition_1/leftstar.PNG,space,,,,,1,10,35,16,,,,,,,,,232.29283840000016,,,,,,,,,,,,,,,,,,,,,,,,,,,,,,,,,,,,,,,,,,,,,232.22500179999997,232.29283840000016,232.72723730000007,232.72724830000016,233.22393069999998,233.68667809999988,233.5207031,233.5207135999999,234.83209279999983,234.83209279999983,235.20732839999982,space,1,0.37299590000020544,None,,,,,,,,,,,,,,,,,,,,,,,,,,,,,,,,,,,,,,,,,,,,,,,,,,,,,,,,,,,,,,005,001,2023-11-11_13h49.43.709,untitled,2023.2.3,271.52736860194943,2023-11-11 13h49.55.145240 +0800,
1,condition_1/rightstar.PNG,space,,,,,1,11,36,4,,,,,,,,,235.27689629999986,,,,,,,,,,,,,,,,,,,,,,,,,,,,,,,,,,,,,,,,,,,,,235.20769999999993,235.27689629999986,235.7104929000002,235.71050349999996,236.2070192000001,236.66016500000023,236.5040468000002,236.5040583,237.81467519999978,237.81467519999978,238.2646593999998,space,1,0.44452259999980015,None,,,,,,,,,,,,,,,,,,,,,,,,,,,,,,,,,,,,,,,,,,,,,,,,,,,,,,,,,,,,,,005,001,2023-11-11_13h49.43.709,untitled,2023.2.3,271.52736860194943,2023-11-11 13h49.55.145240 +0800,
1,condition_1/blank.PNG,space,,,,,1,12,37,8,,,,,,,,,238.33288189999985,,,,,,,,,,,,,,,,,,,,,,,,,,,,,,,,,,,,,,,,,,,,,238.26502230000006,238.33288189999985,238.7672163000002,238.76722699999982,239.26711130000012,,239.5662886,239.56640719999996,240.96265170000015,240.96265170000015,241.98789149999993,space,1,1.0213770000000295,None,241.76394320000009,,,,,,,,,,,,,,,,,,,,,,,,,,,,,,,,,,,,,,,,,,,,,,,,,,,,,,,,,,,,,005,001,2023-11-11_13h49.43.709,untitled,2023.2.3,271.52736860194943,2023-11-11 13h49.55.145240 +0800,
9,condition_1/rightstar.PNG,right,,,,,1,13,38,15,,,,,,,,,242.05731590000005,,,,,,,,,,,,,,,,,,,,,,,,,,,,,,,,,,,,,,,,,,,,,241.98827600000004,242.05731590000005,242.49062249999997,242.49063239999987,242.98716300000024,243.45152310000003,243.28745639999988,243.2874683,244.6333168000001,244.6333168000001,244.96771649999982,right,1,0.3294455999998718,None,,,,,,,,,,,,,,,,,,,,,,,,,,,,,,,,,,,,,,,,,,,,,,,,,,,,,,,,,,,,,,005,001,2023-11-11_13h49.43.709,untitled,2023.2.3,271.52736860194943,2023-11-11 13h49.55.145240 +0800,
9,condition_1/leftstar.PNG,left,,,,,1,14,39,3,,,,,,,,,245.04350299999987,,,,,,,,,,,,,,,,,,,,,,,,,,,,,,,,,,,,,,,,,,,,,244.9681046999999,245.04350299999987,245.47062060000007,245.47063220000018,245.96695790000012,246.4374859999998,246.26754500000015,246.2675567000001,247.57725299999993,247.57725299999993,247.94446160000007,left,1,0.3649571000000833,None,,,,,,,,,,,,,,,,,,,,,,,,,,,,,,,,,,,,,,,,,,,,,,,,,,,,,,,,,,,,,,005,001,2023-11-11_13h49.43.709,untitled,2023.2.3,271.52736860194943,2023-11-11 13h49.55.145240 +0800,
1,condition_1/leftstar.PNG,space,,,,,1,15,40,22,,,,,,,,,248.02071190000015,,,,,,,,,,,,,,,,,,,,,,,,,,,,,,,,,,,,,,,,,,,,,247.94487620000018,248.02071190000015,248.44818459999988,248.44819439999992,248.94390909999993,249.4202148999998,249.2407148000002,249.24072699999988,250.553355,250.553355,251.19802310000023,space,1,0.6440162999997483,None,,,,,,,,,,,,,,,,,,,,,,,,,,,,,,,,,,,,,,,,,,,,,,,,,,,,,,,,,,,,,,005,001,2023-11-11_13h49.43.709,untitled,2023.2.3,271.52736860194943,2023-11-11 13h49.55.145240 +0800,
2,condition_1/leftstar.PNG,space,,,,,1,16,41,17,,,,,,,,,251.2737231000001,,,,,,,,,,,,,,,,,,,,,,,,,,,,,,,,,,,,,,,,,,,,,251.19841290000022,251.2737231000001,251.70394940000006,251.70396130000017,252.1971199999998,252.6542841999999,252.49441089999982,252.4944220000002,253.80468710000014,253.80468710000014,254.47120760000007,space,1,0.6626468000004024,None,,,,,,,,,,,,,,,,,,,,,,,,,,,,,,,,,,,,,,,,,,,,,,,,,,,,,,,,,,,,,,005,001,2023-11-11_13h49.43.709,untitled,2023.2.3,271.52736860194943,2023-11-11 13h49.55.145240 +0800,
2,condition_1/leftstar.PNG,space,,,,,1,17,42,1,,,,,,,,,254.54091530000005,,,,,,,,,,,,,,,,,,,,,,,,,,,,,,,,,,,,,,,,,,,,,254.4715944999998,254.54091530000005,254.97430450000002,254.97431509999979,255.4705611999998,255.92859660000022,255.76731830000017,255.7673276999999,257.0786684999998,257.0786684999998,257.76110430000017,space,1,0.6776376000002529,None,,,,,,,,,,,,,,,,,,,,,,,,,,,,,,,,,,,,,,,,,,,,,,,,,,,,,,,,,,,,,,005,001,2023-11-11_13h49.43.709,untitled,2023.2.3,271.52736860194943,2023-11-11 13h49.55.145240 +0800,
9,condition_1/blank.PNG,space,,,,,1,18,43,11,,,,,,,,,257.82968900000014,,,,,,,,,,,,,,,,,,,,,,,,,,,,,,,,,,,,,,,,,,,,,257.7614702999999,257.82968900000014,258.26776659999996,258.26777760000004,258.7601795999999,259.09312950000003,259.0577831999999,259.0577932000001,260.44300169999997,260.44300169999997,262.24464690000013,space,1,1.8010211000000709,None,261.2437709999999,,,,,,,,,,,,,,,,,,,,,,,,,,,,,,,,,,,,,,,,,,,,,,,,,,,,,,,,,,,,,005,001,2023-11-11_13h49.43.709,untitled,2023.2.3,271.52736860194943,2023-11-11 13h49.55.145240 +0800,
8,condition_1/rightstar.PNG,right,,,,,1,19,44,6,,,,,,,,,262.3122607,,,,,,,,,,,,,,,,,,,,,,,,,,,,,,,,,,,,,,,,,,,,,262.24500850000004,262.3122607,262.74715190000006,262.74716249999983,263.2439548000002,263.7036171,263.5407148999998,263.54072589999987,264.8888572000001,264.8888572000001,265.1442944999999,right,1,0.25198379999983445,None,,,,,,,,,,,,,,,,,,,,,,,,,,,,,,,,,,,,,,,,,,,,,,,,,,,,,,,,,,,,,,005,001,2023-11-11_13h49.43.709,untitled,2023.2.3,271.52736860194943,2023-11-11 13h49.55.145240 +0800,
8,condition_1/rightstar.PNG,right,,,,,1,20,45,23,,,,,,,,,265.2127184000001,,,,,,,,,,,,,,,,,,,,,,,,,,,,,,,,,,,,,,,,,,,,,265.14465310000014,265.2127184000001,265.64724479999995,265.6472549,266.1439866999999,266.5964726000002,266.44067129999985,266.4406815000002,267.75151300000016,267.75151300000016,268.18786480000017,right,1,0.4353403999998591,None,,,,,,,,,,,,,,,,,,,,,,,,,,,,,,,,,,,,,,,,,,,,,,,,,,,,,,,,,,,,,,005,001,2023-11-11_13h49.43.709,untitled,2023.2.3,271.52736860194943,2023-11-11 13h49.55.145240 +0800,
8,condition_1/blank.PNG,space,,,,,1,21,46,24,,,,,,,,,268.26115059999984,,,,,,,,,,,,,,,,,,,,,,,,,,,,,,,,,,,,,,,,,,,,,268.18829259999984,268.26115059999984,268.6904988000001,268.69050890000017,269.18721589999996,269.52047300000004,269.48409089999996,269.48410090000016,270.87090720000015,270.87090720000015,271.5477546000002,space,1,0.6760296000002199,None,,,,,,,,,,,,,,,,,,,,,,,,,,,,,,,,,,,,,,,,,,,,,,,,,,,,,,,,,,,,,,005,001,2023-11-11_13h49.43.709,untitled,2023.2.3,271.52736860194943,2023-11-11 13h49.55.145240 +0800,
2,condition_1/rightstar.PNG,space,,,,,1,22,47,5,,,,,,,,,271.61671720000004,,,,,,,,,,,,,,,,,,,,,,,,,,,,,,,,,,,,,,,,,,,,,271.5481488999999,271.61671720000004,272.0507732000001,272.0507840999999,272.5473399000002,273.01263130000007,272.8439306,272.84394040000006,274.1948378000002,274.1948378000002,274.5414374000002,space,1,0.3434111000001394,None,,,,,,,,,,,,,,,,,,,,,,,,,,,,,,,,,,,,,,,,,,,,,,,,,,,,,,,,,,,,,,005,001,2023-11-11_13h49.43.709,untitled,2023.2.3,271.52736860194943,2023-11-11 13h49.55.145240 +0800,
9,condition_1/leftstar.PNG,left,,,,,1,23,48,20,,,,,,,,,274.60942609999984,,,,,,,,,,,,,,,,,,,,,,,,,,,,,,,,,,,,,,,,,,,,,274.5418429000001,274.60942609999984,275.0474678999999,275.0474798,275.5407138999999,275.9993978000002,275.83787840000014,275.83789049999996,277.14867970000023,277.14867970000023,277.5042595,left,1,0.35424309999962134,None,,,,,,,,,,,,,,,,,,,,,,,,,,,,,,,,,,,,,,,,,,,,,,,,,,,,,,,,,,,,,,005,001,2023-11-11_13h49.43.709,untitled,2023.2.3,271.52736860194943,2023-11-11 13h49.55.145240 +0800,
9,condition_1/rightstar.PNG,right,,,,,1,24,49,7,,,,,,,,,277.57335539999985,,,,,,,,,,,,,,,,,,,,,,,,,,,,,,,,,,,,,,,,,,,,,277.5046430000002,277.57335539999985,278.0072546000001,278.0072660999999,278.50405409999985,278.9803714999998,278.8008691,278.8008798000001,280.11180250000007,280.11180250000007,280.4213407000002,right,1,0.30627559999993537,None,,,,,,,,,,,,,,,,,,,,,,,,,,,,,,,,,,,,,,,,,,,,,,,,,,,,,,,,,,,,,,005,001,2023-11-11_13h49.43.709,untitled,2023.2.3,271.52736860194943,2023-11-11 13h49.55.145240 +0800,
,,,,,,,,,,,,,,,,,,,,,,,,,,,,,,,,,,,,,,,,,,,,,,,,,,,,,,,,,,,,,,,,,,,,,,,,,,,,,,,,280.4216243999999,280.42553339999995,280.42553339999995,297.2044820000001,space,16.77348979999988,None,,,,,,,,,,,,,,,,,,,,,,,,,,,,,,,,,,,,,,,,,,,,,,,,,,,,,,005,001,2023-11-11_13h49.43.709,untitled,2023.2.3,271.52736860194943,2023-11-11 13h49.55.145240 +0800,
,,,,,,,,,,,,,,,,,,,,,,,,,,,,,,,,,,,,,,,,,,,,,,,,,,,,,,,,,,,,,,,,,,,,,,,,,,,,,,,,,,,,,,,297.2045076999998,297.20789319999994,297.20789319999994,320.30760469999996,space,23.097746099999767,None,,,,,,,,,,,,,,,,,,,,,,,,,,,,,,,,,,,,,,,,,,,,,,,005,001,2023-11-11_13h49.43.709,untitled,2023.2.3,271.52736860194943,2023-11-11 13h49.55.145240 +0800,
1,test2/leftstar.PNG,left,,,,,,,,,0,0,0,0,,,,,320.3815800000002,,,,,,,,,,,,,,,,,,,,,,,,,,,,,,,,,,,,,,,,,,,,,,,,,,,,,,,,,,,,,,,,,,,,,,,,,,,320.31162510000013,320.3815800000002,320.8105206,320.8105310000001,321.3078203,321.7645576,321.60371050000003,321.60372050000024,322.9265211000002,322.9265211000002,323.3544849,left,0.4266853999997693,None,,,,,,,,,,,,,,,,,,,,,,,,,,,,,,,,,005,001,2023-11-11_13h49.43.709,untitled,2023.2.3,271.52736860194943,2023-11-11 13h49.55.145240 +0800,
1,test2/blank.PNG,space,,,,,,,,,0,1,1,2,,,,,323.4267552000001,,,,,,,,,,,,,,,,,,,,,,,,,,,,,,,,,,,,,,,,,,,,,,,,,,,,,,,,,,,,,,,,,,,,,,,,,,,323.354961,323.4267552000001,323.85764800000015,323.8576607,324.3542430000002,324.690838,324.6509380000002,324.65094839999983,326.04840120000017,326.04840120000017,326.4612510000002,space,0.4118708000000879,None,,,,,,,,,,,,,,,,,,,,,,,,,,,,,,,,,005,001,2023-11-11_13h49.43.709,untitled,2023.2.3,271.52736860194943,2023-11-11 13h49.55.145240 +0800,
2,test2/leftstar.PNG,left,,,,,,,,,0,2,2,4,,,,,326.54102580000017,,,,,,,,,,,,,,,,,,,,,,,,,,,,,,,,,,,,,,,,,,,,,,,,,,,,,,,,,,,,,,,,,,,,,,,,,,,326.4615816999999,326.54102580000017,326.9639729999999,326.96398420000014,327.4604128000001,327.9369117000001,327.7578134999999,327.75782449999997,329.1257303000002,329.1257303000002,329.414589,left,0.2833540000001449,None,,,,,,,,,,,,,,,,,,,,,,,,,,,,,,,,,005,001,2023-11-11_13h49.43.709,untitled,2023.2.3,271.52736860194943,2023-11-11 13h49.55.145240 +0800,
9,test2/rightstar.PNG,space,,,,,,,,,0,3,3,3,,,,,329.5857381999999,,,,,,,,,,,,,,,,,,,,,,,,,,,,,,,,,,,,,,,,,,,,,,,,,,,,,,,,,,,,,,,,,,,,,,,,,,,329.4149652000001,329.5857381999999,329.9174469999998,329.91745979999996,330.4141890000001,330.8774282999998,330.71060339999985,330.71061629999986,332.0245933000001,332.0245933000001,332.29733799999985,space,0.2710365000002639,None,,,,,,,,,,,,,,,,,,,,,,,,,,,,,,,,,005,001,2023-11-11_13h49.43.709,untitled,2023.2.3,271.52736860194943,2023-11-11 13h49.55.145240 +0800,
8,test2/rightstar.PNG,space,,,,,,,,,0,4,4,1,,,,,332.3659667000002,,,,,,,,,,,,,,,,,,,,,,,,,,,,,,,,,,,,,,,,,,,,,,,,,,,,,,,,,,,,,,,,,,,,,,,,,,,332.2976678,332.3659667000002,332.8005449000002,332.80055570000013,333.2973975,333.76337300000023,333.5939795999998,333.59399059999987,334.9059825999998,334.9059825999998,335.37722029999986,right,0.4686754999997902,None,,,,,,,,,,,,,,,,,,,,,,,,,,,,,,,,,005,001,2023-11-11_13h49.43.709,untitled,2023.2.3,271.52736860194943,2023-11-11 13h49.55.145240 +0800,
8,test2/rightstar.PNG,space,,,,,,,,,0,5,5,5,,,,,335.4463031,,,,,,,,,,,,,,,,,,,,,,,,,,,,,,,,,,,,,,,,,,,,,,,,,,,,,,,,,,,,,,,,,,,,,,,,,,,335.3775383000002,335.4463031,335.8840573000002,335.8840688999999,336.37672810000004,336.8398280000001,336.6738346000002,336.67384440000023,337.9851625000001,337.9851625000001,338.4208732000002,space,0.43427120000023933,None,,,,,,,,,,,,,,,,,,,,,,,,,,,,,,,,,005,001,2023-11-11_13h49.43.709,untitled,2023.2.3,271.52736860194943,2023-11-11 13h49.55.145240 +0800,
,,,,,,,,,,,,,,,,,,,,,,,,,,,,,,,,,,,,,,,,,,,,,,,,,,,,,,,,,,,,,,,,,,,,,,,,,,,,,,,,,,,,,,,,,,,,,,,,,,,,,,,,,,,,338.42115879999983,338.4272952000001,338.4272952000001,339.42705179999984,339.61526360000016,space,1.1859907999996722,None,,,,,,,,,,,,,,,,,,,,,,,,,005,001,2023-11-11_13h49.43.709,untitled,2023.2.3,271.52736860194943,2023-11-11 13h49.55.145240 +0800,
,,,,,,,,,,,,,,,,,,,,,,,,,,,,,,,,,,,,,,,,,,,,,,,,,,,,,,,,,,,,,,,,,,,,,,,,,,,,,,,,,,,,,,,,,,,,,,,,,,,,,,,,,,,,,,,,,,,,339.61529010000004,339.6191230999998,339.6191230999998,340.62729579999996,350.4722698999999,space,10.851679400000194,None,,,,,,,,,,,,,,,,,005,001,2023-11-11_13h49.43.709,untitled,2023.2.3,271.52736860194943,2023-11-11 13h49.55.145240 +0800,
9,condition_2/leftstar.PNG,space,,,,,,,,,,,,,0,0,0,24,350.5493179,,,,,,,,,,,,,,,,,,,,,,,,,,,,,,,,,,,,,,,,,,,,,,,,,,,,,,,,,,,,,,,,,,,,,,,,,,,,,,,,,,,,,,,,,,,,,,,,,,,,,,,,,350.477449,350.5493179,350.9738355999998,350.9738470000002,351.4738468999999,351.93976569999995,351.770704,351.77071860000024,353.09123409999984,353.09123409999984,353.49426730000005,space,1,0.39990579999994225,None,,005,001,2023-11-11_13h49.43.709,untitled,2023.2.3,271.52736860194943,2023-11-11 13h49.55.145240 +0800,
9,condition_2/leftstar.PNG,space,,,,,,,,,,,,,0,1,1,19,353.56328410000015,,,,,,,,,,,,,,,,,,,,,,,,,,,,,,,,,,,,,,,,,,,,,,,,,,,,,,,,,,,,,,,,,,,,,,,,,,,,,,,,,,,,,,,,,,,,,,,,,,,,,,,,,353.49477990000014,353.56328410000015,353.9971489999998,353.9971605999999,354.4945668999999,354.9689364000001,354.7907934,354.79080780000004,356.1037720999998,356.1037720999998,356.5645429000001,space,1,0.459837499999594,None,,005,001,2023-11-11_13h49.43.709,untitled,2023.2.3,271.52736860194943,2023-11-11 13h49.55.145240 +0800,
2,condition_2/leftstar.PNG,left,,,,,,,,,,,,,0,2,2,17,356.63350900000023,,,,,,,,,,,,,,,,,,,,,,,,,,,,,,,,,,,,,,,,,,,,,,,,,,,,,,,,,,,,,,,,,,,,,,,,,,,,,,,,,,,,,,,,,,,,,,,,,,,,,,,,,356.56494299999986,356.63350900000023,357.0671175000002,357.06712890000017,357.5668181000001,358.0189203,357.8640088000002,357.8640227000001,359.17191060000005,359.17191060000005,359.68115739999985,left,1,0.5075145999999222,None,,005,001,2023-11-11_13h49.43.709,untitled,2023.2.3,271.52736860194943,2023-11-11 13h49.55.145240 +0800,
9,condition_2/leftstar.PNG,space,,,,,,,,,,,,,0,3,3,3,359.74926300000016,,,,,,,,,,,,,,,,,,,,,,,,,,,,,,,,,,,,,,,,,,,,,,,,,,,,,,,,,,,,,,,,,,,,,,,,,,,,,,,,,,,,,,,,,,,,,,,,,,,,,,,,,359.68155350000006,359.74926300000016,360.18391340000016,360.1839258,360.6807523000002,361.1416647000001,360.9808812000001,360.9808929000001,362.2888506999998,362.2888506999998,362.5586757000001,space,1,0.26874279999992723,None,,005,001,2023-11-11_13h49.43.709,untitled,2023.2.3,271.52736860194943,2023-11-11 13h49.55.145240 +0800,
8,condition_2/rightstar.PNG,space,,,,,,,,,,,,,0,4,4,6,362.63199889999987,,,,,,,,,,,,,,,,,,,,,,,,,,,,,,,,,,,,,,,,,,,,,,,,,,,,,,,,,,,,,,,,,,,,,,,,,,,,,,,,,,,,,,,,,,,,,,,,,,,,,,,,,362.5590692999999,362.63199889999987,363.06030539999983,363.0603159000002,363.5604254,364.0158623000002,363.8571710000001,363.8571815,365.1681988999999,365.1681988999999,365.80098869999983,space,1,0.6292730999998639,None,,005,001,2023-11-11_13h49.43.709,untitled,2023.2.3,271.52736860194943,2023-11-11 13h49.55.145240 +0800,
2,condition_2/rightstar.PNG,right,,,,,,,,,,,,,0,5,5,13,365.8751341000002,,,,,,,,,,,,,,,,,,,,,,,,,,,,,,,,,,,,,,,,,,,,,,,,,,,,,,,,,,,,,,,,,,,,,,,,,,,,,,,,,,,,,,,,,,,,,,,,,,,,,,,,,365.8013474999998,365.8751341000002,366.3039187999998,366.3039313999998,366.80039829999987,367.26292109999986,367.09718710000016,367.0971973999999,368.40921750000007,368.40921750000007,368.6811899999998,right,1,0.26742749999993976,None,,005,001,2023-11-11_13h49.43.709,untitled,2023.2.3,271.52736860194943,2023-11-11 13h49.55.145240 +0800,
8,condition_2/blank.PNG,space,,,,,,,,,,,,,0,6,6,10,368.75538289999986,,,,,,,,,,,,,,,,,,,,,,,,,,,,,,,,,,,,,,,,,,,,,,,,,,,,,,,,,,,,,,,,,,,,,,,,,,,,,,,,,,,,,,,,,,,,,,,,,,,,,,,,,368.6816098999998,368.75538289999986,369.18721330000017,369.18722449999996,369.68059230000017,370.01497789999985,369.9776265999999,369.9776385,371.3646887,371.3646887,372.44096820000004,space,1,1.0755530000001272,None,372.16375659999994,005,001,2023-11-11_13h49.43.709,untitled,2023.2.3,271.52736860194943,2023-11-11 13h49.55.145240 +0800,
1,condition_2/leftstar.PNG,left,,,,,,,,,,,,,0,7,7,0,372.50499720000016,,,,,,,,,,,,,,,,,,,,,,,,,,,,,,,,,,,,,,,,,,,,,,,,,,,,,,,,,,,,,,,,,,,,,,,,,,,,,,,,,,,,,,,,,,,,,,,,,,,,,,,,,372.4414041,372.50499720000016,372.94378229999984,372.9437951,373.4403241,373.9078201000002,373.73720490000005,373.7372169,375.08972540000013,375.08972540000013,375.40432340000007,left,1,0.3091714000001957,None,,005,001,2023-11-11_13h49.43.709,untitled,2023.2.3,271.52736860194943,2023-11-11 13h49.55.145240 +0800,
8,condition_2/rightstar.PNG,space,,,,,,,,,,,,,0,8,8,14,375.47738879999997,,,,,,,,,,,,,,,,,,,,,,,,,,,,,,,,,,,,,,,,,,,,,,,,,,,,,,,,,,,,,,,,,,,,,,,,,,,,,,,,,,,,,,,,,,,,,,,,,,,,,,,,,375.40469440000015,375.47738879999997,375.9070796000001,375.9070923999998,376.4074295999999,376.88246489999983,376.7039555000001,376.7039669999999,378.0124844000002,378.0124844000002,378.3682023000001,space,1,0.35446109999975306,None,,005,001,2023-11-11_13h49.43.709,untitled,2023.2.3,271.52736860194943,2023-11-11 13h49.55.145240 +0800,
8,condition_2/rightstar.PNG,space,,,,,,,,,,,,,0,9,9,23,378.4405499999998,,,,,,,,,,,,,,,,,,,,,,,,,,,,,,,,,,,,,,,,,,,,,,,,,,,,,,,,,,,,,,,,,,,,,,,,,,,,,,,,,,,,,,,,,,,,,,,,,,,,,,,,,378.36858250000023,378.4405499999998,378.8704644999998,378.87047680000023,379.37042269999984,379.84257960000014,379.6672456000001,379.6672564999999,380.98036820000016,380.98036820000016,381.8243247999999,space,1,0.8432642000002488,None,381.7838449999999,005,001,2023-11-11_13h49.43.709,untitled,2023.2.3,271.52736860194943,2023-11-11 13h49.55.145240 +0800,
2,condition_2/rightstar.PNG,left,,,,,,,,,,,,,0,10,10,5,381.8874258999999,,,,,,,,,,,,,,,,,,,,,,,,,,,,,,,,,,,,,,,,,,,,,,,,,,,,,,,,,,,,,,,,,,,,,,,,,,,,,,,,,,,,,,,,,,,,,,,,,,,,,,,,,381.8247302,381.8874258999999,382.3272943000002,382.32730630000015,382.8236399000002,383.2840145,383.1207033999999,383.120715,384.4328415,384.4328415,384.7043063000001,right,0,0.2699754000000212,None,,005,001,2023-11-11_13h49.43.709,untitled,2023.2.3,271.52736860194943,2023-11-11 13h49.55.145240 +0800,
8,condition_2/leftstar.PNG,space,,,,,,,,,,,,,0,11,11,2,384.7736510999998,,,,,,,,,,,,,,,,,,,,,,,,,,,,,,,,,,,,,,,,,,,,,,,,,,,,,,,,,,,,,,,,,,,,,,,,,,,,,,,,,,,,,,,,,,,,,,,,,,,,,,,,,384.7046842999998,384.7736510999998,385.2070600000002,385.2070729000002,385.7036364999999,386.15969959999984,386.0006764,386.0006881999998,387.3117053000001,387.3117053000001,387.81098740000016,space,1,0.49794059999976525,None,,005,001,2023-11-11_13h49.43.709,untitled,2023.2.3,271.52736860194943,2023-11-11 13h49.55.145240 +0800,
1,condition_2/leftstar.PNG,left,,,,,,,,,,,,,0,12,12,16,387.87927930000023,,,,,,,,,,,,,,,,,,,,,,,,,,,,,,,,,,,,,,,,,,,,,,,,,,,,,,,,,,,,,,,,,,,,,,,,,,,,,,,,,,,,,,,,,,,,,,,,,,,,,,,,,387.8114249,387.87927930000023,388.3137835000002,388.3137958000002,388.81007150000005,389.2571296000001,389.1074939,389.1075062,390.4360317999999,390.4360317999999,391.1609776,left,1,0.7233221999999842,None,,005,001,2023-11-11_13h49.43.709,untitled,2023.2.3,271.52736860194943,2023-11-11 13h49.55.145240 +0800,
1,condition_2/rightstar.PNG,right,,,,,,,,,,,,,0,13,13,21,391.23445119999997,,,,,,,,,,,,,,,,,,,,,,,,,,,,,,,,,,,,,,,,,,,,,,,,,,,,,,,,,,,,,,,,,,,,,,,,,,,,,,,,,,,,,,,,,,,,,,,,,,,,,,,,,391.1613763999999,391.23445119999997,391.66372,391.6637326,392.1605039000001,392.6105975999999,392.4571864999998,392.4571990999998,393.7690729000001,393.7690729000001,394.1048968,right,1,0.3344285999996828,None,,005,001,2023-11-11_13h49.43.709,untitled,2023.2.3,271.52736860194943,2023-11-11 13h49.55.145240 +0800,
1,condition_2/rightstar.PNG,right,,,,,,,,,,,,,0,14,14,4,394.17230040000004,,,,,,,,,,,,,,,,,,,,,,,,,,,,,,,,,,,,,,,,,,,,,,,,,,,,,,,,,,,,,,,,,,,,,,,,,,,,,,,,,,,,,,,,,,,,,,,,,,,,,,,,,394.1053348999999,394.17230040000004,394.6071049000002,394.6071172000002,395.10721710000007,395.5679753999998,395.40398300000015,395.4039937000002,396.71551020000015,396.71551020000015,397.0579619,right,1,0.3385647999998582,None,,005,001,2023-11-11_13h49.43.709,untitled,2023.2.3,271.52736860194943,2023-11-11 13h49.55.145240 +0800,
2,condition_2/leftstar.PNG,left,,,,,,,,,,,,,0,15,15,1,397.1272729000002,,,,,,,,,,,,,,,,,,,,,,,,,,,,,,,,,,,,,,,,,,,,,,,,,,,,,,,,,,,,,,,,,,,,,,,,,,,,,,,,,,,,,,,,,,,,,,,,,,,,,,,,,397.05833140000004,397.1272729000002,397.5603099,397.5603212000001,398.05723530000023,398.50746070000014,398.35385069999984,398.3538632,399.6647011,399.6647011,399.9715047999998,left,1,0.3046911999999793,None,,005,001,2023-11-11_13h49.43.709,untitled,2023.2.3,271.52736860194943,2023-11-11 13h49.55.145240 +0800,
2,condition_2/leftstar.PNG,left,,,,,,,,,,,,,0,16,16,22,400.04017710000016,,,,,,,,,,,,,,,,,,,,,,,,,,,,,,,,,,,,,,,,,,,,,,,,,,,,,,,,,,,,,,,,,,,,,,,,,,,,,,,,,,,,,,,,,,,,,,,,,,,,,,,,,399.9718978000001,400.04017710000016,400.4736843999999,400.47369660000004,400.97368229999984,401.4295253999999,401.27051230000006,401.27052319999984,402.58133610000004,402.58133610000004,402.87772140000015,left,1,0.29349820000015825,None,,005,001,2023-11-11_13h49.43.709,untitled,2023.2.3,271.52736860194943,2023-11-11 13h49.55.145240 +0800,
1,condition_2/blank.PNG,space,,,,,,,,,,,,,0,17,17,8,402.94525479999993,,,,,,,,,,,,,,,,,,,,,,,,,,,,,,,,,,,,,,,,,,,,,,,,,,,,,,,,,,,,,,,,,,,,,,,,,,,,,,,,,,,,,,,,,,,,,,,,,,,,,,,,,402.8781038000002,402.94525479999993,403.38053149999996,403.38054550000015,403.8770064999999,,404.1874932999999,404.1875068999998,405.5618327000002,405.5618327000002,405.7913460999998,space,1,0.22831730000007155,None,,005,001,2023-11-11_13h49.43.709,untitled,2023.2.3,271.52736860194943,2023-11-11 13h49.55.145240 +0800,
1,condition_2/rightstar.PNG,right,,,,,,,,,,,,,0,18,18,12,405.86626419999993,,,,,,,,,,,,,,,,,,,,,,,,,,,,,,,,,,,,,,,,,,,,,,,,,,,,,,,,,,,,,,,,,,,,,,,,,,,,,,,,,,,,,,,,,,,,,,,,,,,,,,,,,405.7917152,405.86626419999993,406.29381079999985,406.29382399999986,406.7905566999998,407.25880659999984,407.0911538999999,407.09116630000017,408.4355515000002,408.4355515000002,408.7175324,right,1,0.2792389999999614,None,,005,001,2023-11-11_13h49.43.709,untitled,2023.2.3,271.52736860194943,2023-11-11 13h49.55.145240 +0800,
8,condition_2/leftstar.PNG,space,,,,,,,,,,,,,0,19,19,18,408.7944034000002,,,,,,,,,,,,,,,,,,,,,,,,,,,,,,,,,,,,,,,,,,,,,,,,,,,,,,,,,,,,,,,,,,,,,,,,,,,,,,,,,,,,,,,,,,,,,,,,,,,,,,,,,408.7180272999999,408.7944034000002,409.2179409999999,409.21795680000014,409.71698490000017,410.18306489999986,410.0173149000002,410.01732570000013,411.3248732000002,411.3248732000002,411.74476989999994,space,1,0.4166581000004044,None,,005,001,2023-11-11_13h49.43.709,untitled,2023.2.3,271.52736860194943,2023-11-11 13h49.55.145240 +0800,
9,condition_2/rightstar.PNG,space,,,,,,,,,,,,,0,20,20,7,411.81757749999997,,,,,,,,,,,,,,,,,,,,,,,,,,,,,,,,,,,,,,,,,,,,,,,,,,,,,,,,,,,,,,,,,,,,,,,,,,,,,,,,,,,,,,,,,,,,,,,,,,,,,,,,,411.7451618,411.81757749999997,412.24700299999995,412.24701619999996,412.74696529999983,413.220378,413.04450069999984,413.0445152000002,414.3546824,414.3546824,414.7243440000002,space,1,0.3649285999999847,None,,005,001,2023-11-11_13h49.43.709,untitled,2023.2.3,271.52736860194943,2023-11-11 13h49.55.145240 +0800,
2,condition_2/blank.PNG,space,,,,,,,,,,,,,0,21,21,20,414.7955671999998,,,,,,,,,,,,,,,,,,,,,,,,,,,,,,,,,,,,,,,,,,,,,,,,,,,,,,,,,,,,,,,,,,,,,,,,,,,,,,,,,,,,,,,,,,,,,,,,,,,,,,,,,414.72474079999984,414.7955671999998,415.2271077999999,415.2271212999999,415.72366950000014,416.0505379000001,416.0207018000001,416.0207135999999,417.40724839999984,417.40724839999984,418.0577100999999,space,1,0.6476533000000018,None,,005,001,2023-11-11_13h49.43.709,untitled,2023.2.3,271.52736860194943,2023-11-11 13h49.55.145240 +0800,
9,condition_2/rightstar.PNG,space,,,,,,,,,,,,,0,22,22,15,418.1251438999998,,,,,,,,,,,,,,,,,,,,,,,,,,,,,,,,,,,,,,,,,,,,,,,,,,,,,,,,,,,,,,,,,,,,,,,,,,,,,,,,,,,,,,,,,,,,,,,,,,,,,,,,,418.0580998999999,418.1251438999998,418.5603694000001,418.56038179999996,419.0572695000001,419.52058720000014,419.35408899999993,419.3541011000002,420.7110987000001,420.7110987000001,421.0476613999999,space,1,0.33017300000028627,None,,005,001,2023-11-11_13h49.43.709,untitled,2023.2.3,271.52736860194943,2023-11-11 13h49.55.145240 +0800,
2,condition_2/blank.PNG,space,,,,,,,,,,,,,0,23,23,9,421.1255887000002,,,,,,,,,,,,,,,,,,,,,,,,,,,,,,,,,,,,,,,,,,,,,,,,,,,,,,,,,,,,,,,,,,,,,,,,,,,,,,,,,,,,,,,,,,,,,,,,,,,,,,,,,421.04805080000006,421.1255887000002,421.5503093000002,421.5503205,422.0466870999999,422.37618840000005,422.3438167999998,422.3438280999999,423.73240739999983,423.73240739999983,424.14074100000016,space,1,0.40708189999986644,None,,005,001,2023-11-11_13h49.43.709,untitled,2023.2.3,271.52736860194943,2023-11-11 13h49.55.145240 +0800,
9,condition_2/blank.PNG,space,,,,,,,,,,,,,0,24,24,11,424.21161059999986,,,,,,,,,,,,,,,,,,,,,,,,,,,,,,,,,,,,,,,,,,,,,,,,,,,,,,,,,,,,,,,,,,,,,,,,,,,,,,,,,,,,,,,,,,,,,,,,,,,,,,,,,424.14114440000003,424.21161059999986,424.64381360000016,424.6438263,425.1404312999998,425.4717793,425.44067350000023,425.44068460000017,426.74337049999986,426.74337049999986,427.2744210000001,space,1,0.5294592999998713,None,,005,001,2023-11-11_13h49.43.709,untitled,2023.2.3,271.52736860194943,2023-11-11 13h49.55.145240 +0800,
9,condition_2/leftstar.PNG,space,,,,,,,,,,,,,1,0,25,19,427.33772880000015,,,,,,,,,,,,,,,,,,,,,,,,,,,,,,,,,,,,,,,,,,,,,,,,,,,,,,,,,,,,,,,,,,,,,,,,,,,,,,,,,,,,,,,,,,,,,,,,,,,,,,,,,427.2747838,427.33772880000015,427.7771447,427.77715579999995,428.27366630000006,428.7368547000001,428.5708424999998,428.57085629999983,429.9417739999999,429.9417739999999,430.44612199999983,space,1,0.4900146999998469,None,,005,001,2023-11-11_13h49.43.709,untitled,2023.2.3,271.52736860194943,2023-11-11 13h49.55.145240 +0800,
1,condition_2/rightstar.PNG,right,,,,,,,,,,,,,1,1,26,12,430.54150549999986,,,,,,,,,,,,,,,,,,,,,,,,,,,,,,,,,,,,,,,,,,,,,,,,,,,,,,,,,,,,,,,,,,,,,,,,,,,,,,,,,,,,,,,,,,,,,,,,,,,,,,,,,430.4492715000001,430.54150549999986,430.9503189000002,430.950331,431.44713779999984,431.90396740000006,431.7440402000002,431.7440538000001,433.05680600000005,433.05680600000005,433.3310881000002,right,1,0.27342870000029507,None,,005,001,2023-11-11_13h49.43.709,untitled,2023.2.3,271.52736860194943,2023-11-11 13h49.55.145240 +0800,
2,condition_2/blank.PNG,space,,,,,,,,,,,,,1,2,27,9,433.39577340000005,,,,,,,,,,,,,,,,,,,,,,,,,,,,,,,,,,,,,,,,,,,,,,,,,,,,,,,,,,,,,,,,,,,,,,,,,,,,,,,,,,,,,,,,,,,,,,,,,,,,,,,,,433.33143729999983,433.39577340000005,433.84246759999996,433.84248049999997,434.3303387000001,434.6612547999998,434.6272941000002,434.62730509999983,436.0148309000001,436.0148309000001,436.5376362000002,space,1,0.5194510000001173,None,,005,001,2023-11-11_13h49.43.709,untitled,2023.2.3,271.52736860194943,2023-11-11 13h49.55.145240 +0800,
2,condition_2/blank.PNG,space,,,,,,,,,,,,,1,3,28,20,436.6060029,,,,,,,,,,,,,,,,,,,,,,,,,,,,,,,,,,,,,,,,,,,,,,,,,,,,,,,,,,,,,,,,,,,,,,,,,,,,,,,,,,,,,,,,,,,,,,,,,,,,,,,,,436.5380114999998,436.6060029,437.0405215999999,437.0405343000002,437.53695229999994,437.86927160000005,437.8338011999999,437.8338127000002,439.13991209999995,439.13991209999995,439.46750539999994,space,1,0.32432550000021365,None,,005,001,2023-11-11_13h49.43.709,untitled,2023.2.3,271.52736860194943,2023-11-11 13h49.55.145240 +0800,
8,condition_2/blank.PNG,space,,,,,,,,,,,,,1,4,29,10,439.5308484000002,,,,,,,,,,,,,,,,,,,,,,,,,,,,,,,,,,,,,,,,,,,,,,,,,,,,,,,,,,,,,,,,,,,,,,,,,,,,,,,,,,,,,,,,,,,,,,,,,,,,,,,,,439.4678663999998,439.5308484000002,439.97040620000007,439.97041750000017,440.4670016,440.7940948999999,440.76405639999984,440.76406799999995,442.0699459000002,442.0699459000002,442.64789569999994,space,1,0.576936200000091,None,,005,001,2023-11-11_13h49.43.709,untitled,2023.2.3,271.52736860194943,2023-11-11 13h49.55.145240 +0800,
2,condition_2/leftstar.PNG,left,,,,,,,,,,,,,1,5,30,22,442.71576890000006,,,,,,,,,,,,,,,,,,,,,,,,,,,,,,,,,,,,,,,,,,,,,,,,,,,,,,,,,,,,,,,,,,,,,,,,,,,,,,,,,,,,,,,,,,,,,,,,,,,,,,,,,442.64827509999986,442.71576890000006,443.1506749,443.15068599999995,443.6470657,444.1007490000002,443.9439741000001,443.9439874999998,445.2940976,445.2940976,445.70417910000015,left,1,0.40602220000027955,None,,005,001,2023-11-11_13h49.43.709,untitled,2023.2.3,271.52736860194943,2023-11-11 13h49.55.145240 +0800,
9,condition_2/leftstar.PNG,space,,,,,,,,,,,,,1,6,31,3,445.7763731,,,,,,,,,,,,,,,,,,,,,,,,,,,,,,,,,,,,,,,,,,,,,,,,,,,,,,,,,,,,,,,,,,,,,,,,,,,,,,,,,,,,,,,,,,,,,,,,,,,,,,,,,445.7045930999998,445.7763731,446.2072469,446.20726000000013,446.7034662000001,447.1609024999998,447.0006652000002,447.00067850000005,448.3118155000002,448.3118155000002,448.6850193,space,1,0.36652979999962554,None,,005,001,2023-11-11_13h49.43.709,untitled,2023.2.3,271.52736860194943,2023-11-11 13h49.55.145240 +0800,
9,condition_2/blank.PNG,space,,,,,,,,,,,,,1,7,32,11,448.7572527000002,,,,,,,,,,,,,,,,,,,,,,,,,,,,,,,,,,,,,,,,,,,,,,,,,,,,,,,,,,,,,,,,,,,,,,,,,,,,,,,,,,,,,,,,,,,,,,,,,,,,,,,,,448.6868273,448.7572527000002,449.1873618999998,449.1873741999998,449.6865939999998,450.01367100000016,449.98375510000005,449.9837656999998,451.3688892,451.3688892,451.92745079999986,space,1,0.5556292000001122,None,,005,001,2023-11-11_13h49.43.709,untitled,2023.2.3,271.52736860194943,2023-11-11 13h49.55.145240 +0800,
2,condition_2/rightstar.PNG,right,,,,,,,,,,,,,1,8,33,13,451.99826859999985,,,,,,,,,,,,,,,,,,,,,,,,,,,,,,,,,,,,,,,,,,,,,,,,,,,,,,,,,,,,,,,,,,,,,,,,,,,,,,,,,,,,,,,,,,,,,,,,,,,,,,,,,451.9278287000002,451.99826859999985,452.4305813000001,452.4305958,452.926907,453.38196659999994,453.2239933999999,453.22400590000007,454.5772434999999,454.5772434999999,454.84049000000005,right,1,0.26090130000011413,None,,005,001,2023-11-11_13h49.43.709,untitled,2023.2.3,271.52736860194943,2023-11-11 13h49.55.145240 +0800,
9,condition_2/rightstar.PNG,space,,,,,,,,,,,,,1,9,34,15,454.9059766999999,,,,,,,,,,,,,,,,,,,,,,,,,,,,,,,,,,,,,,,,,,,,,,,,,,,,,,,,,,,,,,,,,,,,,,,,,,,,,,,,,,,,,,,,,,,,,,,,,,,,,,,,,454.84087249999993,454.9059766999999,455.3439228000002,455.34393480000017,455.8440234999998,456.3039782000001,456.14079059999995,456.14080349999995,457.45004070000005,457.45004070000005,458.08760440000015,space,1,0.6340875999999298,None,,005,001,2023-11-11_13h49.43.709,untitled,2023.2.3,271.52736860194943,2023-11-11 13h49.55.145240 +0800,
1,condition_2/leftstar.PNG,left,,,,,,,,,,,,,1,10,35,0,458.1554162000002,,,,,,,,,,,,,,,,,,,,,,,,,,,,,,,,,,,,,,,,,,,,,,,,,,,,,,,,,,,,,,,,,,,,,,,,,,,,,,,,,,,,,,,,,,,,,,,,,,,,,,,,,458.0879642,458.1554162000002,458.5902095000001,458.59022099999993,459.08709580000004,459.5450787999998,459.38385900000003,459.3838698999998,460.6958242999999,460.6958242999999,461.2876935999998,left,1,0.5886687000001984,None,,005,001,2023-11-11_13h49.43.709,untitled,2023.2.3,271.52736860194943,2023-11-11 13h49.55.145240 +0800,
1,condition_2/rightstar.PNG,right,,,,,,,,,,,,,1,11,36,4,461.3604965999998,,,,,,,,,,,,,,,,,,,,,,,,,,,,,,,,,,,,,,,,,,,,,,,,,,,,,,,,,,,,,,,,,,,,,,,,,,,,,,,,,,,,,,,,,,,,,,,,,,,,,,,,,461.2880884000001,461.3604965999998,461.7902603000002,461.7902724999999,462.2867147000002,462.74242589999994,462.58373100000017,462.5837422999998,463.89429340000015,463.89429340000015,464.16729540000006,right,1,0.271803699999964,None,,005,001,2023-11-11_13h49.43.709,untitled,2023.2.3,271.52736860194943,2023-11-11 13h49.55.145240 +0800,
8,condition_2/rightstar.PNG,space,,,,,,,,,,,,,1,12,37,14,464.2342560000002,,,,,,,,,,,,,,,,,,,,,,,,,,,,,,,,,,,,,,,,,,,,,,,,,,,,,,,,,,,,,,,,,,,,,,,,,,,,,,,,,,,,,,,,,,,,,,,,,,,,,,,,,464.1676729999999,464.2342560000002,464.6704079000001,464.6704205000001,465.1668685999998,465.6184674000001,465.46761389999983,465.467627,466.7791166000002,466.7791166000002,467.0381701000001,space,1,0.25147500000002765,None,,005,001,2023-11-11_13h49.43.709,untitled,2023.2.3,271.52736860194943,2023-11-11 13h49.55.145240 +0800,
2,condition_2/rightstar.PNG,left,,,,,,,,,,,,,1,13,38,5,467.1077558000002,,,,,,,,,,,,,,,,,,,,,,,,,,,,,,,,,,,,,,,,,,,,,,,,,,,,,,,,,,,,,,,,,,,,,,,,,,,,,,,,,,,,,,,,,,,,,,,,,,,,,,,,,467.03857719999996,467.1077558000002,467.5404426,467.5404537999998,468.0407602,468.4908504,468.33723120000013,468.3372433999998,469.6453502999998,469.6453502999998,469.9010662999999,right,0,0.25399960000004285,None,,005,001,2023-11-11_13h49.43.709,untitled,2023.2.3,271.52736860194943,2023-11-11 13h49.55.145240 +0800,
1,condition_2/leftstar.PNG,left,,,,,,,,,,,,,1,14,39,16,469.9639987999999,,,,,,,,,,,,,,,,,,,,,,,,,,,,,,,,,,,,,,,,,,,,,,,,,,,,,,,,,,,,,,,,,,,,,,,,,,,,,,,,,,,,,,,,,,,,,,,,,,,,,,,,,469.9014440000001,469.9639987999999,470.4039750000002,470.4039865,470.90101360000017,471.34935700000005,471.1972117,471.197224,472.51129219999984,472.51129219999984,472.92769959999987,left,1,0.4131475999997747,None,,005,001,2023-11-11_13h49.43.709,untitled,2023.2.3,271.52736860194943,2023-11-11 13h49.55.145240 +0800,
8,condition_2/rightstar.PNG,space,,,,,,,,,,,,,1,15,40,6,472.9902235999998,,,,,,,,,,,,,,,,,,,,,,,,,,,,,,,,,,,,,,,,,,,,,,,,,,,,,,,,,,,,,,,,,,,,,,,,,,,,,,,,,,,,,,,,,,,,,,,,,,,,,,,,,472.9280652000002,472.9902235999998,473.4306396000002,473.43065449999995,473.92718109999987,474.3778609000001,474.2238794,474.22389310000017,475.5344005000002,475.5344005000002,475.85869490000005,space,1,0.3221810000000005,None,,005,001,2023-11-11_13h49.43.709,untitled,2023.2.3,271.52736860194943,2023-11-11 13h49.55.145240 +0800,
9,condition_2/rightstar.PNG,space,,,,,,,,,,,,,1,16,41,7,475.9269684000001,,,,,,,,,,,,,,,,,,,,,,,,,,,,,,,,,,,,,,,,,,,,,,,,,,,,,,,,,,,,,,,,,,,,,,,,,,,,,,,,,,,,,,,,,,,,,,,,,,,,,,,,,475.859097,475.9269684000001,476.36021759999994,476.3602286,476.8603600000001,477.3129831000001,477.1573524999999,477.1573652000002,478.4949243000001,478.4949243000001,478.9778832000002,space,1,0.4788285999998152,None,,005,001,2023-11-11_13h49.43.709,untitled,2023.2.3,271.52736860194943,2023-11-11 13h49.55.145240 +0800,
8,condition_2/leftstar.PNG,space,,,,,,,,,,,,,1,17,42,2,479.04594959999986,,,,,,,,,,,,,,,,,,,,,,,,,,,,,,,,,,,,,,,,,,,,,,,,,,,,,,,,,,,,,,,,,,,,,,,,,,,,,,,,,,,,,,,,,,,,,,,,,,,,,,,,,478.97828040000013,479.04594959999986,479.48054170000023,479.4805531000002,479.97703649999994,480.4323029000002,480.2739901,480.2740014000001,481.5846732,481.5846732,482.3277914999999,space,1,0.7414578999996593,None,,005,001,2023-11-11_13h49.43.709,untitled,2023.2.3,271.52736860194943,2023-11-11 13h49.55.145240 +0800,
2,condition_2/leftstar.PNG,left,,,,,,,,,,,,,1,18,43,1,482.39089049999984,,,,,,,,,,,,,,,,,,,,,,,,,,,,,,,,,,,,,,,,,,,,,,,,,,,,,,,,,,,,,,,,,,,,,,,,,,,,,,,,,,,,,,,,,,,,,,,,,,,,,,,,,482.32816159999993,482.39089049999984,482.8303856000002,482.8303987999998,483.3269918000001,483.7833985000002,483.6242401999998,483.62425239999993,484.9347676000002,484.9347676000002,485.24091670000007,left,1,0.3035294999999678,None,,005,001,2023-11-11_13h49.43.709,untitled,2023.2.3,271.52736860194943,2023-11-11 13h49.55.145240 +0800,
2,condition_2/leftstar.PNG,left,,,,,,,,,,,,,1,19,44,17,485.30869470000016,,,,,,,,,,,,,,,,,,,,,,,,,,,,,,,,,,,,,,,,,,,,,,,,,,,,,,,,,,,,,,,,,,,,,,,,,,,,,,,,,,,,,,,,,,,,,,,,,,,,,,,,,485.2412809000002,485.30869470000016,485.7436679000002,485.74368000000004,486.2403021,486.6978951000001,486.5406103999999,486.54062380000005,487.8478146000002,487.8478146000002,488.52431049999996,left,1,0.672944699999789,None,,005,001,2023-11-11_13h49.43.709,untitled,2023.2.3,271.52736860194943,2023-11-11 13h49.55.145240 +0800,
9,condition_2/leftstar.PNG,space,,,,,,,,,,,,,1,20,45,24,488.5976452,,,,,,,,,,,,,,,,,,,,,,,,,,,,,,,,,,,,,,,,,,,,,,,,,,,,,,,,,,,,,,,,,,,,,,,,,,,,,,,,,,,,,,,,,,,,,,,,,,,,,,,,,488.52467160000015,488.5976452,489.02700830000003,489.0270220000002,489.5239397,489.9804078000002,489.8204357999998,489.82044959999985,491.13113010000006,491.13113010000006,491.4038965,space,1,0.27203489999965313,None,,005,001,2023-11-11_13h49.43.709,untitled,2023.2.3,271.52736860194943,2023-11-11 13h49.55.145240 +0800,
1,condition_2/blank.PNG,space,,,,,,,,,,,,,1,21,46,8,491.46780119999994,,,,,,,,,,,,,,,,,,,,,,,,,,,,,,,,,,,,,,,,,,,,,,,,,,,,,,,,,,,,,,,,,,,,,,,,,,,,,,,,,,,,,,,,,,,,,,,,,,,,,,,,,491.4043147000002,491.46780119999994,491.9069730000001,491.9069841999999,492.4033462000002,492.7311697,492.70075510000015,492.70076740000013,494.0910371,494.0910371,494.7040124,space,1,0.6114636000002065,None,,005,001,2023-11-11_13h49.43.709,untitled,2023.2.3,271.52736860194943,2023-11-11 13h49.55.145240 +0800,
8,condition_2/rightstar.PNG,space,,,,,,,,,,,,,1,22,47,23,494.77178700000013,,,,,,,,,,,,,,,,,,,,,,,,,,,,,,,,,,,,,,,,,,,,,,,,,,,,,,,,,,,,,,,,,,,,,,,,,,,,,,,,,,,,,,,,,,,,,,,,,,,,,,,,,494.7043746999998,494.77178700000013,495.2073529999998,495.2073647000002,495.7037085000002,496.16735530000005,496.0005888999999,496.00060040000017,497.3571551,497.3571551,498.3307229000002,space,1,0.9700604999998177,None,498.1605801999999,005,001,2023-11-11_13h49.43.709,untitled,2023.2.3,271.52736860194943,2023-11-11 13h49.55.145240 +0800,
8,condition_2/leftstar.PNG,space,,,,,,,,,,,,,1,23,48,18,498.3946222999998,,,,,,,,,,,,,,,,,,,,,,,,,,,,,,,,,,,,,,,,,,,,,,,,,,,,,,,,,,,,,,,,,,,,,,,,,,,,,,,,,,,,,,,,,,,,,,,,,,,,,,,,,498.33109250000007,498.3946222999998,498.8338540999998,498.8338665000001,499.33010190000005,499.7851122000002,499.6269530999998,499.6269636000002,500.9380802999999,500.9380802999999,501.3678356999999,space,1,0.4268898000000263,None,,005,001,2023-11-11_13h49.43.709,untitled,2023.2.3,271.52736860194943,2023-11-11 13h49.55.145240 +0800,
1,condition_2/rightstar.PNG,right,,,,,,,,,,,,,1,24,49,21,501.4399426,,,,,,,,,,,,,,,,,,,,,,,,,,,,,,,,,,,,,,,,,,,,,,,,,,,,,,,,,,,,,,,,,,,,,,,,,,,,,,,,,,,,,,,,,,,,,,,,,,,,,,,,,501.36822230000007,501.4399426,501.8701815999998,501.8701928999999,502.36694940000007,502.8240387999999,502.6639100000002,502.66392270000006,503.974733,503.974733,504.28772449999997,right,1,0.3099612999999408,None,,005,001,2023-11-11_13h49.43.709,untitled,2023.2.3,271.52736860194943,2023-11-11 13h49.55.145240 +0800,
