stimuli,star,CorrectAns,trials_3.thisRepN,trials_3.thisTrialN,trials_3.thisN,trials_3.thisIndex,trials.thisRepN,trials.thisTrialN,trials.thisN,trials.thisIndex,trials_4.thisRepN,trials_4.thisTrialN,trials_4.thisN,trials_4.thisIndex,trials_2.thisRepN,trials_2.thisTrialN,trials_2.thisN,trials_2.thisIndex,thisRow.t,notes,routine_21.started,text_9.started,key_resp_8.started,routine_21.stopped,key_resp_8.keys,key_resp_8.rt,key_resp_8.duration,introduction.started,text_6.started,key_resp_5.started,introduction.stopped,key_resp_5.keys,key_resp_5.rt,key_resp_5.duration,routine_14.started,image_6.started,routine_14.stopped,routine_16.started,text_4.started,routine_16.stopped,routine_17.started,image_7.started,key_resp_3.started,image_7.stopped,routine_17.stopped,key_resp_3.keys,key_resp_3.rt,key_resp_3.duration,text_4.stopped,routine_20.started,text_8.started,key_resp_7.started,routine_20.stopped,key_resp_7.keys,key_resp_7.rt,key_resp_7.duration,routine_18.started,text_5.started,key_resp_4.started,routine_18.stopped,key_resp_4.keys,key_resp_4.rt,key_resp_4.duration,trial.started,image_3.started,trial.stopped,routine.started,text_3.started,text_3.stopped,routine.stopped,routine_1.started,image_2.started,key_resp.started,routine_1.stopped,key_resp.keys,key_resp.corr,key_resp.rt,key_resp.duration,image_2.stopped,routine_22.started,text_10.started,key_resp_9.started,routine_22.stopped,key_resp_9.keys,key_resp_9.rt,key_resp_9.duration,routine_19.started,text_7.started,key_resp_6.started,routine_19.stopped,key_resp_6.keys,key_resp_6.rt,key_resp_6.duration,routine_23.started,image_8.started,routine_23.stopped,routine_24.started,text_11.started,text_11.stopped,routine_24.stopped,routine_25.started,image_9.started,key_resp_10.started,routine_25.stopped,key_resp_10.keys,key_resp_10.rt,key_resp_10.duration,image_9.stopped,routine_26.started,text_12.started,key_resp_11.started,text_12.stopped,routine_26.stopped,key_resp_11.keys,key_resp_11.rt,key_resp_11.duration,routine_27.started,text_13.started,key_resp_12.started,text_13.stopped,routine_27.stopped,key_resp_12.keys,key_resp_12.rt,key_resp_12.duration,routine_10.started,image_4.started,routine_10.stopped,routine_11.started,text.started,text.stopped,routine_11.stopped,routine_12.started,image_5.started,key_resp_2.started,routine_12.stopped,key_resp_2.keys,key_resp_2.corr,key_resp_2.rt,key_resp_2.duration,image_5.stopped,participant,session,date,expName,psychopyVersion,frameRate,expStart,
,,,,,,,,,,,,,,,,,,,,,0.021849099997780286,0.03963109999313019,0.03963109999313019,5.255929399994784,space,5.212107200000901,None,,,,,,,,,,,,,,,,,,,,,,,,,,,,,,,,,,,,,,,,,,,,,,,,,,,,,,,,,,,,,,,,,,,,,,,,,,,,,,,,,,,,,,,,,,,,,,,,,,,,,,,,,,,,,,,,,,006,001,2023-11-12_14h08.58.228,untitled,2023.2.3,60.8933665854337,2023-11-12 14h09.07.920587 +0800,
,,,,,,,,,,,,,,,,,,,,,,,,,,,,5.255953499989118,5.272159999993164,5.272159999993164,27.60565109999152,space,22.32636970000749,None,,,,,,,,,,,,,,,,,,,,,,,,,,,,,,,,,,,,,,,,,,,,,,,,,,,,,,,,,,,,,,,,,,,,,,,,,,,,,,,,,,,,,,,,,,,,,,,,,,,,,,,,,,,006,001,2023-11-12_14h08.58.228,untitled,2023.2.3,60.8933665854337,2023-11-12 14h09.07.920587 +0800,
2,test/leftstar.PNG,space,0,0,0,4,,,,,,,,,,,,,27.698021299991524,,,,,,,,,,,,,,,,27.611063699994702,27.698021299991524,28.122458099998767,28.1224693999975,28.60570590000134,28.90622569998959,28.906235699992976,30.22097429999849,30.22097429999849,31.02229229999648,33.039225999993505,space,2.808389800004079,None,,,,,,,,,,,,,,,,,,,,,,,,,,,,,,,,,,,,,,,,,,,,,,,,,,,,,,,,,,,,,,,,,,,,,,,,,,,,,,,,,,,,,,,,,,,,,006,001,2023-11-12_14h08.58.228,untitled,2023.2.3,60.8933665854337,2023-11-12 14h09.07.920587 +0800,
1,test/blank.PNG,space,0,1,1,2,,,,,,,,,,,,,33.110927599991555,,,,,,,,,,,,,,,,33.039669999998296,33.110927599991555,33.554733199998736,33.55474510000204,34.03833959999611,34.3224390999967,34.32245079999848,35.74763939999684,35.74763939999684,36.55539470000076,39.08943219999492,space,3.3299777999927755,None,34.3714112000016,,,,,,,,,,,,,,,,,,,,,,,,,,,,,,,,,,,,,,,,,,,,,,,,,,,,,,,,,,,,,,,,,,,,,,,,,,,,,,,,,,,,,,,,,,,,006,001,2023-11-12_14h08.58.228,untitled,2023.2.3,60.8933665854337,2023-11-12 14h09.07.920587 +0800,
1,test/leftstar.PNG,space,0,2,2,0,,,,,,,,,,,,,39.172002899998915,,,,,,,,,,,,,,,,39.08976309999707,39.172002899998915,39.605958300002385,39.60596999998961,40.1056125999894,40.38854600000195,40.38855530000001,41.74236229999224,41.74236229999224,42.55453539999144,43.33942599999136,space,1.5878364000091096,None,40.56213439999556,,,,,,,,,,,,,,,,,,,,,,,,,,,,,,,,,,,,,,,,,,,,,,,,,,,,,,,,,,,,,,,,,,,,,,,,,,,,,,,,,,,,,,,,,,,,006,001,2023-11-12_14h08.58.228,untitled,2023.2.3,60.8933665854337,2023-11-12 14h09.07.920587 +0800,
8,test/rightstar.PNG,right,0,3,3,1,,,,,,,,,,,,,43.40983009999036,,,,,,,,,,,,,,,,43.339792300001136,43.40983009999036,43.8558200999978,43.85583659999247,44.37265559998923,44.65494670000044,44.654957099992316,45.954562500002794,45.954562500002794,46.755282400001306,47.0725289999973,right,1.105855400004657,None,,,,,,,,,,,,,,,,,,,,,,,,,,,,,,,,,,,,,,,,,,,,,,,,,,,,,,,,,,,,,,,,,,,,,,,,,,,,,,,,,,,,,,,,,,,,,006,001,2023-11-12_14h08.58.228,untitled,2023.2.3,60.8933665854337,2023-11-12 14h09.07.920587 +0800,
9,test/rightstar.PNG,right,0,4,4,3,,,,,,,,,,,,,47.142375399998855,,,,,,,,,,,,,,,,47.072896099998616,47.142375399998855,47.588577399990754,47.58858809999947,48.087824399990495,48.371604899992235,48.37161499999638,49.68930119999277,49.68930119999277,50.50466589999269,50.706016099997214,right,1.0017324999935227,None,48.53837449999992,,,,,,,,,,,,,,,,,,,,,,,,,,,,,,,,,,,,,,,,,,,,,,,,,,,,,,,,,,,,,,,,,,,,,,,,,,,,,,,,,,,,,,,,,,,,006,001,2023-11-12_14h08.58.228,untitled,2023.2.3,60.8933665854337,2023-11-12 14h09.07.920587 +0800,
8,test/leftstar.PNG,left,0,5,5,5,,,,,,,,,,,,,50.776874299990595,,,,,,,,,,,,,,,,50.70647759998974,50.776874299990595,51.22181740000087,51.22182839999732,51.70578069999465,52.00492890000169,52.00494009999966,53.304682000001776,53.304682000001776,,53.92392879999534,left,0.6158665999973891,None,52.17155169999751,,,,,,,,,,,,,,,,,,,,,,,,,,,,,,,,,,,,,,,,,,,,,,,,,,,,,,,,,,,,,,,,,,,,,,,,,,,,,,,,,,,,,,,,,,,,006,001,2023-11-12_14h08.58.228,untitled,2023.2.3,60.8933665854337,2023-11-12 14h09.07.920587 +0800,
,,,,,,,,,,,,,,,,,,,,,,,,,,,,,,,,,,,,,,,,,,,,,,,,,,53.92416189999494,53.938879699999234,53.938879699999234,56.039070999991964,space,2.0927985000016633,None,,,,,,,,,,,,,,,,,,,,,,,,,,,,,,,,,,,,,,,,,,,,,,,,,,,,,,,,,,,,,,,,,,,,,,,,,,,,,,,,,,,,,006,001,2023-11-12_14h08.58.228,untitled,2023.2.3,60.8933665854337,2023-11-12 14h09.07.920587 +0800,
,,,,,,,,,,,,,,,,,,,,,,,,,,,,,,,,,,,,,,,,,,,,,,,,,,,,,,,,,56.03910539999197,56.05566209999961,56.05566209999961,59.038744999998016,space,2.979318500001682,None,,,,,,,,,,,,,,,,,,,,,,,,,,,,,,,,,,,,,,,,,,,,,,,,,,,,,,,,,,,,,,,,,,,,,,,,,,,,,,006,001,2023-11-12_14h08.58.228,untitled,2023.2.3,60.8933665854337,2023-11-12 14h09.07.920587 +0800,
1,condition_1/rightstar.PNG,space,,,,,0,0,0,12,,,,,,,,,59.12222109999857,,,,,,,,,,,,,,,,,,,,,,,,,,,,,,,,,,,,,,,,,,,,,59.04382330000226,59.12222109999857,59.5550774000003,59.555090299996664,60.03837449999992,60.485812699989765,60.32227239999338,60.322283799992874,61.65463910000108,61.65463910000108,61.840822600002866,space,1,0.16970909999508876,None,,,,,,,,,,,,,,,,,,,,,,,,,,,,,,,,,,,,,,,,,,,,,,,,,,,,,,,,,,,,,,,006,001,2023-11-12_14h08.58.228,untitled,2023.2.3,60.8933665854337,2023-11-12 14h09.07.920587 +0800,
8,condition_1/blank.PNG,space,,,,,0,1,1,24,,,,,,,,,61.91100870000082,,,,,,,,,,,,,,,,,,,,,,,,,,,,,,,,,,,,,,,,,,,,,61.84153510000033,61.91100870000082,62.355262400000356,62.35527539999748,62.856126500002574,,63.15475709999737,63.15476989999297,64.55245709999872,64.55245709999872,66.63964639999904,space,1,2.076236200009589,None,65.3551873999968,,,,,,,,,,,,,,,,,,,,,,,,,,,,,,,,,,,,,,,,,,,,,,,,,,,,,,,,,,,,,,006,001,2023-11-12_14h08.58.228,untitled,2023.2.3,60.8933665854337,2023-11-12 14h09.07.920587 +0800,
2,condition_1/blank.PNG,space,,,,,0,2,2,9,,,,,,,,,66.71122270000342,,,,,,,,,,,,,,,,,,,,,,,,,,,,,,,,,,,,,,,,,,,,,66.64001889999781,66.71122270000342,67.15469779999694,67.154709800001,67.65567259999807,67.97554020000098,67.93928009999217,67.93929369999387,69.2548514999944,69.2548514999944,70.32227609999245,space,1,1.0662193000025582,None,70.05536929999653,,,,,,,,,,,,,,,,,,,,,,,,,,,,,,,,,,,,,,,,,,,,,,,,,,,,,,,,,,,,,,006,001,2023-11-12_14h08.58.228,untitled,2023.2.3,60.8933665854337,2023-11-12 14h09.07.920587 +0800,
8,condition_1/rightstar.PNG,right,,,,,0,3,3,23,,,,,,,,,70.39516189999995,,,,,,,,,,,,,,,,,,,,,,,,,,,,,,,,,,,,,,,,,,,,,70.32265550000011,70.39516189999995,70.83842590000131,70.838436799997,71.3220519000024,71.76943729999766,71.60528229999181,71.60529219999444,72.97149559999525,72.97149559999525,74.17350839999563,right,1,1.1962765000062063,None,73.77216939999198,,,,,,,,,,,,,,,,,,,,,,,,,,,,,,,,,,,,,,,,,,,,,,,,,,,,,,,,,,,,,,006,001,2023-11-12_14h08.58.228,untitled,2023.2.3,60.8933665854337,2023-11-12 14h09.07.920587 +0800,
9,condition_1/blank.PNG,space,,,,,0,4,4,11,,,,,,,,,74.24337719999312,,,,,,,,,,,,,,,,,,,,,,,,,,,,,,,,,,,,,,,,,,,,,74.17394449999847,74.24337719999312,74.6880272999988,74.6880378999922,75.18787719999091,75.52201879999484,75.47162589999789,75.47163800000271,76.88271710000117,76.88271710000117,78.08871319999162,space,1,1.1979520999884699,None,77.68770799999766,,,,,,,,,,,,,,,,,,,,,,,,,,,,,,,,,,,,,,,,,,,,,,,,,,,,,,,,,,,,,,006,001,2023-11-12_14h08.58.228,untitled,2023.2.3,60.8933665854337,2023-11-12 14h09.07.920587 +0800,
8,condition_1/blank.PNG,space,,,,,0,5,5,10,,,,,,,,,78.17203380000137,,,,,,,,,,,,,,,,,,,,,,,,,,,,,,,,,,,,,,,,,,,,,78.0890725999925,78.17203380000137,78.60499829999753,78.60502180000185,79.08854820000124,79.40808969999489,79.37186739999743,79.37187919999997,80.68802020000294,80.68802020000294,82.52209489999223,space,1,1.8174648999993224,None,81.48810129999765,,,,,,,,,,,,,,,,,,,,,,,,,,,,,,,,,,,,,,,,,,,,,,,,,,,,,,,,,,,,,,006,001,2023-11-12_14h08.58.228,untitled,2023.2.3,60.8933665854337,2023-11-12 14h09.07.920587 +0800,
2,condition_1/leftstar.PNG,space,,,,,0,6,6,17,,,,,,,,,82.59226499999932,,,,,,,,,,,,,,,,,,,,,,,,,,,,,,,,,,,,,,,,,,,,,82.52245979999134,82.59226499999932,83.02260489999026,83.02261729999736,83.52223229999072,83.96805679998943,83.80578369999421,83.80579430000216,85.17186889999721,85.17186889999721,86.10573049999948,space,1,0.9234090000099968,None,85.97157819999848,,,,,,,,,,,,,,,,,,,,,,,,,,,,,,,,,,,,,,,,,,,,,,,,,,,,,,,,,,,,,,006,001,2023-11-12_14h08.58.228,untitled,2023.2.3,60.8933665854337,2023-11-12 14h09.07.920587 +0800,
2,condition_1/rightstar.PNG,space,,,,,0,7,7,5,,,,,,,,,86.17660989999422,,,,,,,,,,,,,,,,,,,,,,,,,,,,,,,,,,,,,,,,,,,,,86.10609269999259,86.17660989999422,86.62189480000234,86.62190600000031,87.10545899999852,87.5507157999964,87.38974600000074,87.38976140000159,88.7049807000003,88.7049807000003,89.23950689999037,space,1,0.5328923000051873,None,,,,,,,,,,,,,,,,,,,,,,,,,,,,,,,,,,,,,,,,,,,,,,,,,,,,,,,,,,,,,,,006,001,2023-11-12_14h08.58.228,untitled,2023.2.3,60.8933665854337,2023-11-12 14h09.07.920587 +0800,
2,condition_1/leftstar.PNG,space,,,,,0,8,8,1,,,,,,,,,89.3113813999953,,,,,,,,,,,,,,,,,,,,,,,,,,,,,,,,,,,,,,,,,,,,,89.24013969999214,89.3113813999953,89.75686459999997,89.75688980000268,90.25521299999673,90.69769869999436,90.53874029999133,90.53875330000301,91.83806280000135,91.83806280000135,96.78987749999214,space,1,4.950780700004543,None,92.63829999999143,,,,,,,,,,,,,,,,,,,,,,,,,,,,,,,,,,,,,,,,,,,,,,,,,,,,,,,,,,,,,,006,001,2023-11-12_14h08.58.228,untitled,2023.2.3,60.8933665854337,2023-11-12 14h09.07.920587 +0800,
1,condition_1/leftstar.PNG,space,,,,,0,9,9,22,,,,,,,,,96.86038319999352,,,,,,,,,,,,,,,,,,,,,,,,,,,,,,,,,,,,,,,,,,,,,96.79042419999314,96.86038319999352,97.30469730000186,97.30470839999907,97.80449979999685,98.25554699999338,98.08830239999224,98.08831239999563,99.40468349998991,99.40468349998991,99.85554730000149,space,1,0.43775309999182355,None,,,,,,,,,,,,,,,,,,,,,,,,,,,,,,,,,,,,,,,,,,,,,,,,,,,,,,,,,,,,,,,006,001,2023-11-12_14h08.58.228,untitled,2023.2.3,60.8933665854337,2023-11-12 14h09.07.920587 +0800,
9,condition_1/rightstar.PNG,right,,,,,0,10,10,7,,,,,,,,,99.92995959999098,,,,,,,,,,,,,,,,,,,,,,,,,,,,,,,,,,,,,,,,,,,,,99.85590009999578,99.92995959999098,100.37213479999627,100.37214809999568,100.854869399991,101.30455909999728,101.13878079999995,101.13879569999699,102.45469489999232,102.45469489999232,103.37265330000082,right,1,0.9045210000040242,None,103.25544919999084,,,,,,,,,,,,,,,,,,,,,,,,,,,,,,,,,,,,,,,,,,,,,,,,,,,,,,,,,,,,,,006,001,2023-11-12_14h08.58.228,untitled,2023.2.3,60.8933665854337,2023-11-12 14h09.07.920587 +0800,
9,condition_1/leftstar.PNG,left,,,,,0,11,11,3,,,,,,,,,103.45460899999307,,,,,,,,,,,,,,,,,,,,,,,,,,,,,,,,,,,,,,,,,,,,,103.37302899999486,103.45460899999307,103.88919439999154,103.88920540000254,104.3719293000031,104.8208944999933,104.65569400000095,104.65571679999994,105.98869719999493,105.98869719999493,106.57186660000298,left,1,0.5737432999885641,None,,,,,,,,,,,,,,,,,,,,,,,,,,,,,,,,,,,,,,,,,,,,,,,,,,,,,,,,,,,,,,,006,001,2023-11-12_14h08.58.228,untitled,2023.2.3,60.8933665854337,2023-11-12 14h09.07.920587 +0800,
8,condition_1/leftstar.PNG,left,,,,,0,12,12,18,,,,,,,,,106.65448939999624,,,,,,,,,,,,,,,,,,,,,,,,,,,,,,,,,,,,,,,,,,,,,106.57222950000141,106.65448939999624,107.08848279999802,107.08849399999599,107.572073000003,108.01757189999626,107.85570279999229,107.85571380000329,109.17177279999305,109.17177279999305,109.62263630000234,left,1,0.4440226000006078,None,,,,,,,,,,,,,,,,,,,,,,,,,,,,,,,,,,,,,,,,,,,,,,,,,,,,,,,,,,,,,,,006,001,2023-11-12_14h08.58.228,untitled,2023.2.3,60.8933665854337,2023-11-12 14h09.07.920587 +0800,
1,condition_1/blank.PNG,space,,,,,0,13,13,8,,,,,,,,,109.69842600000266,,,,,,,,,,,,,,,,,,,,,,,,,,,,,,,,,,,,,,,,,,,,,109.62299380000331,109.69842600000266,110.13824990000285,110.13826130000234,110.62156439998944,110.95516929999576,110.90499999999884,110.90501249999215,112.33801579999272,112.33801579999272,113.60562029998982,space,1,1.2590136000071652,None,113.13857139999163,,,,,,,,,,,,,,,,,,,,,,,,,,,,,,,,,,,,,,,,,,,,,,,,,,,,,,,,,,,,,,006,001,2023-11-12_14h08.58.228,untitled,2023.2.3,60.8933665854337,2023-11-12 14h09.07.920587 +0800,
2,condition_1/rightstar.PNG,space,,,,,0,14,14,13,,,,,,,,,113.67549219999637,,,,,,,,,,,,,,,,,,,,,,,,,,,,,,,,,,,,,,,,,,,,,113.60602310000104,113.67549219999637,114.1217503999942,114.12176290000207,114.62164709999342,,114.90594389999751,114.90595420000318,116.25402259999828,116.25402259999828,116.35550559998956,space,1,0.09273060000850819,None,,,,,,,,,,,,,,,,,,,,,,,,,,,,,,,,,,,,,,,,,,,,,,,,,,,,,,,,,,,,,,,006,001,2023-11-12_14h08.58.228,untitled,2023.2.3,60.8933665854337,2023-11-12 14h09.07.920587 +0800,
2,condition_1/rightstar.PNG,space,,,,,0,15,15,21,,,,,,,,,116.43036669999128,,,,,,,,,,,,,,,,,,,,,,,,,,,,,,,,,,,,,,,,,,,,,116.355862899989,116.43036669999128,116.87218949999078,116.87220030000026,117.35577039999771,117.80448569999135,117.64002189999155,117.6400347000017,118.9550894999993,118.9550894999993,119.2557422999962,space,1,0.28770349999831524,None,,,,,,,,,,,,,,,,,,,,,,,,,,,,,,,,,,,,,,,,,,,,,,,,,,,,,,,,,,,,,,,006,001,2023-11-12_14h08.58.228,untitled,2023.2.3,60.8933665854337,2023-11-12 14h09.07.920587 +0800,
9,condition_1/rightstar.PNG,right,,,,,0,16,16,15,,,,,,,,,119.33789499998966,,,,,,,,,,,,,,,,,,,,,,,,,,,,,,,,,,,,,,,,,,,,,119.25612419999379,119.33789499998966,119.77326239999093,119.77327499999956,120.25498399999924,120.7046321999951,120.5386800999986,120.53869249999116,121.8719729000004,121.8719729000004,123.05784699998912,right,1,1.169014300001436,None,122.67213880000054,,,,,,,,,,,,,,,,,,,,,,,,,,,,,,,,,,,,,,,,,,,,,,,,,,,,,,,,,,,,,,006,001,2023-11-12_14h08.58.228,untitled,2023.2.3,60.8933665854337,2023-11-12 14h09.07.920587 +0800,
1,condition_1/rightstar.PNG,space,,,,,0,17,17,4,,,,,,,,,123.12752110000292,,,,,,,,,,,,,,,,,,,,,,,,,,,,,,,,,,,,,,,,,,,,,123.05829899999662,123.12752110000292,123.57168269999966,123.57169219999923,124.0731611999945,,124.37168729999394,124.37169800000265,125.6711656999978,125.6711656999978,126.00550109999313,space,1,0.33123799999884795,None,,,,,,,,,,,,,,,,,,,,,,,,,,,,,,,,,,,,,,,,,,,,,,,,,,,,,,,,,,,,,,,006,001,2023-11-12_14h08.58.228,untitled,2023.2.3,60.8933665854337,2023-11-12 14h09.07.920587 +0800,
1,condition_1/leftstar.PNG,space,,,,,0,18,18,16,,,,,,,,,126.08016589999897,,,,,,,,,,,,,,,,,,,,,,,,,,,,,,,,,,,,,,,,,,,,,126.005883299993,126.08016589999897,126.52144549999502,126.52145629998995,127.00586199999088,127.44597559999966,127.28945689999091,127.28947509999853,128.62177359999623,128.62177359999623,129.12181469998905,space,1,0.4939907000079984,None,,,,,,,,,,,,,,,,,,,,,,,,,,,,,,,,,,,,,,,,,,,,,,,,,,,,,,,,,,,,,,,006,001,2023-11-12_14h08.58.228,untitled,2023.2.3,60.8933665854337,2023-11-12 14h09.07.920587 +0800,
9,condition_1/leftstar.PNG,left,,,,,0,19,19,19,,,,,,,,,129.19105129998934,,,,,,,,,,,,,,,,,,,,,,,,,,,,,,,,,,,,,,,,,,,,,129.12222999999358,129.19105129998934,129.63820609998947,129.63821720000124,130.12126339999668,130.56598459999077,130.40505679999478,130.40507459999935,131.7218533999985,131.7218533999985,132.17283060000045,left,1,0.44802189999609254,None,,,,,,,,,,,,,,,,,,,,,,,,,,,,,,,,,,,,,,,,,,,,,,,,,,,,,,,,,,,,,,,006,001,2023-11-12_14h08.58.228,untitled,2023.2.3,60.8933665854337,2023-11-12 14h09.07.920587 +0800,
9,condition_1/leftstar.PNG,left,,,,,0,20,20,20,,,,,,,,,132.24287839999306,,,,,,,,,,,,,,,,,,,,,,,,,,,,,,,,,,,,,,,,,,,,,132.1732573999907,132.24287839999306,132.68837959998928,132.6883921999979,133.18851339998946,133.63021779998962,133.47222019999754,133.4722316999978,134.78833029999805,134.78833029999805,135.12298759999976,left,1,0.33161110000219196,None,,,,,,,,,,,,,,,,,,,,,,,,,,,,,,,,,,,,,,,,,,,,,,,,,,,,,,,,,,,,,,,006,001,2023-11-12_14h08.58.228,untitled,2023.2.3,60.8933665854337,2023-11-12 14h09.07.920587 +0800,
1,condition_1/leftstar.PNG,space,,,,,0,21,21,0,,,,,,,,,135.19509090000065,,,,,,,,,,,,,,,,,,,,,,,,,,,,,,,,,,,,,,,,,,,,,135.1233499999944,135.19509090000065,135.63869559999148,135.63870589999715,136.13802230000147,136.578500299991,136.42157920000318,136.42160049999075,137.73802350000187,137.73802350000187,137.77269630000228,space,1,0.02926479998859577,None,,,,,,,,,,,,,,,,,,,,,,,,,,,,,,,,,,,,,,,,,,,,,,,,,,,,,,,,,,,,,,,006,001,2023-11-12_14h08.58.228,untitled,2023.2.3,60.8933665854337,2023-11-12 14h09.07.920587 +0800,
8,condition_1/rightstar.PNG,right,,,,,0,22,22,6,,,,,,,,,137.8482185999892,,,,,,,,,,,,,,,,,,,,,,,,,,,,,,,,,,,,,,,,,,,,,137.77309609999065,137.8482185999892,138.28830149999703,138.28831329999957,138.77130629999738,139.21349519999058,139.05619580000348,139.05620619999536,140.387751199989,140.387751199989,140.67436809999344,right,1,0.28351219999603927,None,,,,,,,,,,,,,,,,,,,,,,,,,,,,,,,,,,,,,,,,,,,,,,,,,,,,,,,,,,,,,,,006,001,2023-11-12_14h08.58.228,untitled,2023.2.3,60.8933665854337,2023-11-12 14h09.07.920587 +0800,
8,condition_1/leftstar.PNG,left,,,,,0,23,23,2,,,,,,,,,140.74357279999822,,,,,,,,,,,,,,,,,,,,,,,,,,,,,,,,,,,,,,,,,,,,,140.6747284000012,140.74357279999822,141.18909379999968,141.1891045999946,141.68817789999594,142.12801649999165,141.97225969999272,141.9722718999983,143.2878892000008,143.2878892000008,143.6057446999912,left,1,0.3060412000049837,None,,,,,,,,,,,,,,,,,,,,,,,,,,,,,,,,,,,,,,,,,,,,,,,,,,,,,,,,,,,,,,,006,001,2023-11-12_14h08.58.228,untitled,2023.2.3,60.8933665854337,2023-11-12 14h09.07.920587 +0800,
8,condition_1/rightstar.PNG,right,,,,,0,24,24,14,,,,,,,,,143.6763723999902,,,,,,,,,,,,,,,,,,,,,,,,,,,,,,,,,,,,,,,,,,,,,143.60613539999758,143.6763723999902,144.12205419999373,144.1220650999894,144.6216296999919,145.07117759999528,144.9054133000027,144.90543559999787,146.22118839999894,146.22118839999894,146.53999309999926,right,1,0.3021800999995321,None,,,,,,,,,,,,,,,,,,,,,,,,,,,,,,,,,,,,,,,,,,,,,,,,,,,,,,,,,,,,,,,006,001,2023-11-12_14h08.58.228,untitled,2023.2.3,60.8933665854337,2023-11-12 14h09.07.920587 +0800,
9,condition_1/rightstar.PNG,right,,,,,1,0,25,7,,,,,,,,,146.61442450000322,,,,,,,,,,,,,,,,,,,,,,,,,,,,,,,,,,,,,,,,,,,,,146.5405563999957,146.61442450000322,147.05530510000244,147.05531650000194,147.55557599999884,147.9963132999983,147.83926539999084,147.83927810000023,149.1551485999953,149.1551485999953,149.45540120000078,right,1,0.2991357999999309,None,,,,,,,,,,,,,,,,,,,,,,,,,,,,,,,,,,,,,,,,,,,,,,,,,,,,,,,,,,,,,,,006,001,2023-11-12_14h08.58.228,untitled,2023.2.3,60.8933665854337,2023-11-12 14h09.07.920587 +0800,
9,condition_1/leftstar.PNG,left,,,,,1,1,26,19,,,,,,,,,149.53117839999322,,,,,,,,,,,,,,,,,,,,,,,,,,,,,,,,,,,,,,,,,,,,,149.45593549999467,149.53117839999322,149.97185170000012,149.97186249999504,150.4709692000033,150.91189839999424,150.75492659999873,150.7549366000021,152.0545465000032,152.0545465000032,152.3890626999928,left,1,0.3251501000049757,None,,,,,,,,,,,,,,,,,,,,,,,,,,,,,,,,,,,,,,,,,,,,,,,,,,,,,,,,,,,,,,,006,001,2023-11-12_14h08.58.228,untitled,2023.2.3,60.8933665854337,2023-11-12 14h09.07.920587 +0800,
2,condition_1/leftstar.PNG,space,,,,,1,2,27,1,,,,,,,,,152.46229609999864,,,,,,,,,,,,,,,,,,,,,,,,,,,,,,,,,,,,,,,,,,,,,152.38954920000106,152.46229609999864,152.90531539999938,152.90532579999126,153.38815410000097,153.83787259999372,153.67229419999057,153.67230639999616,154.98804699999164,154.98804699999164,155.37246289999166,space,1,0.3768979999877047,None,,,,,,,,,,,,,,,,,,,,,,,,,,,,,,,,,,,,,,,,,,,,,,,,,,,,,,,,,,,,,,,006,001,2023-11-12_14h08.58.228,untitled,2023.2.3,60.8933665854337,2023-11-12 14h09.07.920587 +0800,
9,condition_1/leftstar.PNG,left,,,,,1,3,28,20,,,,,,,,,155.44830629999342,,,,,,,,,,,,,,,,,,,,,,,,,,,,,,,,,,,,,,,,,,,,,155.3728989999945,155.44830629999342,155.88922019999882,155.88923839999188,156.3887154999975,156.83867289999034,156.67201389999536,156.67202630000247,157.97105829999782,157.97105829999782,158.44051089999266,left,1,0.45128459999978077,None,,,,,,,,,,,,,,,,,,,,,,,,,,,,,,,,,,,,,,,,,,,,,,,,,,,,,,,,,,,,,,,006,001,2023-11-12_14h08.58.228,untitled,2023.2.3,60.8933665854337,2023-11-12 14h09.07.920587 +0800,
1,condition_1/rightstar.PNG,space,,,,,1,4,29,12,,,,,,,,,158.5210659000004,,,,,,,,,,,,,,,,,,,,,,,,,,,,,,,,,,,,,,,,,,,,,158.4409016999998,158.5210659000004,158.95561170000292,158.95562300000165,159.45749899999646,,159.75477679999312,159.75478750000184,161.0551623999927,161.0551623999927,161.40570920000027,space,1,0.3372234999987995,None,,,,,,,,,,,,,,,,,,,,,,,,,,,,,,,,,,,,,,,,,,,,,,,,,,,,,,,,,,,,,,,006,001,2023-11-12_14h08.58.228,untitled,2023.2.3,60.8933665854337,2023-11-12 14h09.07.920587 +0800,
9,condition_1/blank.PNG,space,,,,,1,5,30,11,,,,,,,,,161.47959399998945,,,,,,,,,,,,,,,,,,,,,,,,,,,,,,,,,,,,,,,,,,,,,161.4062791000033,161.47959399998945,161.9218486000027,161.92186109999602,162.42160169999988,162.75468399999954,162.70555009999953,162.70556059999217,164.10440189999645,164.10440189999645,166.15525229999912,space,1,2.0482654999941587,None,164.90462089999346,,,,,,,,,,,,,,,,,,,,,,,,,,,,,,,,,,,,,,,,,,,,,,,,,,,,,,,,,,,,,,006,001,2023-11-12_14h08.58.228,untitled,2023.2.3,60.8933665854337,2023-11-12 14h09.07.920587 +0800,
8,condition_1/leftstar.PNG,left,,,,,1,6,31,2,,,,,,,,,166.22134109999752,,,,,,,,,,,,,,,,,,,,,,,,,,,,,,,,,,,,,,,,,,,,,166.15562679999857,166.22134109999752,166.67134169999918,166.67135350000171,167.1550886999903,167.606151400003,167.43849849999242,167.43851079999877,168.8048099000007,168.8048099000007,169.37212739999813,left,1,0.5603190999972867,None,,,,,,,,,,,,,,,,,,,,,,,,,,,,,,,,,,,,,,,,,,,,,,,,,,,,,,,,,,,,,,,006,001,2023-11-12_14h08.58.228,untitled,2023.2.3,60.8933665854337,2023-11-12 14h09.07.920587 +0800,
8,condition_1/rightstar.PNG,right,,,,,1,7,32,14,,,,,,,,,169.44414619999588,,,,,,,,,,,,,,,,,,,,,,,,,,,,,,,,,,,,,,,,,,,,,169.37251509999624,169.44414619999588,169.8727152999927,169.8727332999988,170.38801100000273,170.827091500003,170.67144249999546,170.6714573999925,171.97105049999664,171.97105049999664,172.62221329999738,right,1,0.6392109999869717,None,,,,,,,,,,,,,,,,,,,,,,,,,,,,,,,,,,,,,,,,,,,,,,,,,,,,,,,,,,,,,,,006,001,2023-11-12_14h08.58.228,untitled,2023.2.3,60.8933665854337,2023-11-12 14h09.07.920587 +0800,
8,condition_1/blank.PNG,space,,,,,1,8,33,24,,,,,,,,,172.6962893000018,,,,,,,,,,,,,,,,,,,,,,,,,,,,,,,,,,,,,,,,,,,,,172.6227169999911,172.6962893000018,173.13793969999824,173.13795160000154,173.62149029999273,173.93839799999841,173.9068155999994,173.90682730000117,175.31480089999968,175.31480089999968,177.3892896999896,space,1,2.060210099996766,None,176.1220750999928,,,,,,,,,,,,,,,,,,,,,,,,,,,,,,,,,,,,,,,,,,,,,,,,,,,,,,,,,,,,,,006,001,2023-11-12_14h08.58.228,untitled,2023.2.3,60.8933665854337,2023-11-12 14h09.07.920587 +0800,
8,condition_1/blank.PNG,space,,,,,1,9,34,10,,,,,,,,,177.4543524999899,,,,,,,,,,,,,,,,,,,,,,,,,,,,,,,,,,,,,,,,,,,,,177.3898874000006,177.4543524999899,177.90573119999317,177.9057449999964,178.38792890000332,178.70449839999492,178.67244709999068,178.6724583999894,180.00445690000197,180.00445690000197,181.9734088999976,space,1,1.9562803000007989,None,180.8061474999995,,,,,,,,,,,,,,,,,,,,,,,,,,,,,,,,,,,,,,,,,,,,,,,,,,,,,,,,,,,,,,006,001,2023-11-12_14h08.58.228,untitled,2023.2.3,60.8933665854337,2023-11-12 14h09.07.920587 +0800,
9,condition_1/leftstar.PNG,left,,,,,1,10,35,3,,,,,,,,,182.0377959000034,,,,,,,,,,,,,,,,,,,,,,,,,,,,,,,,,,,,,,,,,,,,,181.97384369999054,182.0377959000034,182.4877359999955,182.4877470999927,182.9884158999921,183.43705749999208,183.27183420000074,183.27184469999338,184.6376988999982,184.6376988999982,185.4220256999979,left,1,0.770537600008538,None,185.48940510000102,,,,,,,,,,,,,,,,,,,,,,,,,,,,,,,,,,,,,,,,,,,,,,,,,,,,,,,,,,,,,,006,001,2023-11-12_14h08.58.228,untitled,2023.2.3,60.8933665854337,2023-11-12 14h09.07.920587 +0800,
1,condition_1/leftstar.PNG,space,,,,,1,11,36,22,,,,,,,,,185.48940510000102,,,,,,,,,,,,,,,,,,,,,,,,,,,,,,,,,,,,,,,,,,,,,185.42238360000192,185.48940510000102,185.9381868999917,185.93819809998968,186.4219876999996,186.86045860000013,186.70548129999952,186.7054913999891,188.03781239999807,188.03781239999807,188.37188109999988,space,1,0.3200488000002224,None,,,,,,,,,,,,,,,,,,,,,,,,,,,,,,,,,,,,,,,,,,,,,,,,,,,,,,,,,,,,,,,006,001,2023-11-12_14h08.58.228,untitled,2023.2.3,60.8933665854337,2023-11-12 14h09.07.920587 +0800,
9,condition_1/rightstar.PNG,right,,,,,1,12,37,15,,,,,,,,,188.4460323999956,,,,,,,,,,,,,,,,,,,,,,,,,,,,,,,,,,,,,,,,,,,,,188.3723566999979,188.4460323999956,188.87252609999268,188.87253709998913,189.37169519999588,189.80977219999477,189.65590209999937,189.65591210000275,190.97220299999753,190.97220299999753,191.68966289999662,right,1,0.7078602999972645,None,,,,,,,,,,,,,,,,,,,,,,,,,,,,,,,,,,,,,,,,,,,,,,,,,,,,,,,,,,,,,,,006,001,2023-11-12_14h08.58.228,untitled,2023.2.3,60.8933665854337,2023-11-12 14h09.07.920587 +0800,
1,condition_1/blank.PNG,space,,,,,1,13,38,8,,,,,,,,,191.76568539999425,,,,,,,,,,,,,,,,,,,,,,,,,,,,,,,,,,,,,,,,,,,,,191.69018009999127,191.76568539999425,192.20500549999997,192.2050212000031,192.70494699999108,193.03854989999672,192.9896574000013,192.989668299997,194.4001516999997,194.4001516999997,194.57226489999448,space,1,0.1664664999989327,None,,,,,,,,,,,,,,,,,,,,,,,,,,,,,,,,,,,,,,,,,,,,,,,,,,,,,,,,,,,,,,,006,001,2023-11-12_14h08.58.228,untitled,2023.2.3,60.8933665854337,2023-11-12 14h09.07.920587 +0800,
2,condition_1/rightstar.PNG,space,,,,,1,14,39,21,,,,,,,,,194.63789640000323,,,,,,,,,,,,,,,,,,,,,,,,,,,,,,,,,,,,,,,,,,,,,194.57269950000045,194.63789640000323,195.07281699999294,195.07283009999082,195.57214409999142,196.02078910000273,195.85594509998919,195.8559557999979,197.2151087999955,197.2151087999955,197.30568689999927,space,1,0.08683720001135953,None,,,,,,,,,,,,,,,,,,,,,,,,,,,,,,,,,,,,,,,,,,,,,,,,,,,,,,,,,,,,,,,006,001,2023-11-12_14h08.58.228,untitled,2023.2.3,60.8933665854337,2023-11-12 14h09.07.920587 +0800,
1,condition_1/leftstar.PNG,space,,,,,1,15,40,16,,,,,,,,,197.37598419999995,,,,,,,,,,,,,,,,,,,,,,,,,,,,,,,,,,,,,,,,,,,,,197.3060559000005,197.37598419999995,197.82130589999724,197.82131610000215,198.30482609999308,198.75050339999143,198.58876169999712,198.58877360000042,199.90482369999518,199.90482369999518,200.4884827999922,space,1,0.5748924999934388,None,,,,,,,,,,,,,,,,,,,,,,,,,,,,,,,,,,,,,,,,,,,,,,,,,,,,,,,,,,,,,,,006,001,2023-11-12_14h08.58.228,untitled,2023.2.3,60.8933665854337,2023-11-12 14h09.07.920587 +0800,
1,condition_1/rightstar.PNG,space,,,,,1,16,41,4,,,,,,,,,200.55835199999274,,,,,,,,,,,,,,,,,,,,,,,,,,,,,,,,,,,,,,,,,,,,,200.48884330000146,200.55835199999274,200.9893793999945,200.98939019998943,201.4881342000008,201.92908010000247,201.77261849999195,201.77263110000058,203.088016099995,203.088016099995,203.52179489999253,space,1,0.426276099999086,None,,,,,,,,,,,,,,,,,,,,,,,,,,,,,,,,,,,,,,,,,,,,,,,,,,,,,,,,,,,,,,,006,001,2023-11-12_14h08.58.228,untitled,2023.2.3,60.8933665854337,2023-11-12 14h09.07.920587 +0800,
8,condition_1/leftstar.PNG,left,,,,,1,17,42,18,,,,,,,,,203.59742099999858,,,,,,,,,,,,,,,,,,,,,,,,,,,,,,,,,,,,,,,,,,,,,203.52220759999182,203.59742099999858,204.02315069999895,204.02316989999963,204.52181949999067,204.97120919999725,204.80522290000226,204.80523349999567,206.12114469999506,206.12114469999506,206.43895879999036,left,1,0.30075599999690894,None,,,,,,,,,,,,,,,,,,,,,,,,,,,,,,,,,,,,,,,,,,,,,,,,,,,,,,,,,,,,,,,006,001,2023-11-12_14h08.58.228,untitled,2023.2.3,60.8933665854337,2023-11-12 14h09.07.920587 +0800,
1,condition_1/leftstar.PNG,space,,,,,1,18,43,0,,,,,,,,,206.51105439999083,,,,,,,,,,,,,,,,,,,,,,,,,,,,,,,,,,,,,,,,,,,,,206.4393366000004,206.51105439999083,206.95517169999948,206.95518150000134,207.43860209999548,207.88819159999548,207.72178969999368,207.72180030000163,209.03798769999412,209.03798769999412,209.43882389999635,space,1,0.3848364000004949,None,,,,,,,,,,,,,,,,,,,,,,,,,,,,,,,,,,,,,,,,,,,,,,,,,,,,,,,,,,,,,,,006,001,2023-11-12_14h08.58.228,untitled,2023.2.3,60.8933665854337,2023-11-12 14h09.07.920587 +0800,
2,condition_1/rightstar.PNG,space,,,,,1,19,44,5,,,,,,,,,209.52143739999156,,,,,,,,,,,,,,,,,,,,,,,,,,,,,,,,,,,,,,,,,,,,,209.43923079999513,209.52143739999156,209.95506189999287,209.95507250000082,210.43809349999356,210.87765939999372,210.72216520000075,210.7221761999972,212.03754009999102,212.03754009999102,212.32168239999737,space,1,0.2750919999962207,None,,,,,,,,,,,,,,,,,,,,,,,,,,,,,,,,,,,,,,,,,,,,,,,,,,,,,,,,,,,,,,,006,001,2023-11-12_14h08.58.228,untitled,2023.2.3,60.8933665854337,2023-11-12 14h09.07.920587 +0800,
2,condition_1/leftstar.PNG,space,,,,,1,20,45,17,,,,,,,,,212.39338939999288,,,,,,,,,,,,,,,,,,,,,,,,,,,,,,,,,,,,,,,,,,,,,212.3220575000014,212.39338939999288,212.83818169998995,212.83819239999866,213.32286929999827,,213.62308119999943,213.62309349999123,214.92160980000335,214.92160980000335,215.25519650000206,space,1,0.32282679999480024,None,,,,,,,,,,,,,,,,,,,,,,,,,,,,,,,,,,,,,,,,,,,,,,,,,,,,,,,,,,,,,,,006,001,2023-11-12_14h08.58.228,untitled,2023.2.3,60.8933665854337,2023-11-12 14h09.07.920587 +0800,
2,condition_1/rightstar.PNG,space,,,,,1,21,46,13,,,,,,,,,215.3381403999956,,,,,,,,,,,,,,,,,,,,,,,,,,,,,,,,,,,,,,,,,,,,,215.25558659998933,215.3381403999956,215.75612369998998,215.75613470000098,216.25489229999948,216.6988255000033,216.53898379999737,216.5389945999923,217.8549761000031,217.8549761000031,218.12179130000004,space,1,0.25938599999062717,None,,,,,,,,,,,,,,,,,,,,,,,,,,,,,,,,,,,,,,,,,,,,,,,,,,,,,,,,,,,,,,,006,001,2023-11-12_14h08.58.228,untitled,2023.2.3,60.8933665854337,2023-11-12 14h09.07.920587 +0800,
8,condition_1/rightstar.PNG,right,,,,,1,22,47,23,,,,,,,,,218.18796670000302,,,,,,,,,,,,,,,,,,,,,,,,,,,,,,,,,,,,,,,,,,,,,218.12216210000042,218.18796670000302,218.6379806999903,218.6379911999975,219.12101360000088,219.560891599991,219.4057568999997,219.40576690000307,220.72110989999783,220.72110989999783,221.12313249999715,right,1,0.3970164000056684,None,,,,,,,,,,,,,,,,,,,,,,,,,,,,,,,,,,,,,,,,,,,,,,,,,,,,,,,,,,,,,,,006,001,2023-11-12_14h08.58.228,untitled,2023.2.3,60.8933665854337,2023-11-12 14h09.07.920587 +0800,
2,condition_1/blank.PNG,space,,,,,1,23,48,9,,,,,,,,,221.19166050000058,,,,,,,,,,,,,,,,,,,,,,,,,,,,,,,,,,,,,,,,,,,,,221.12350790000346,221.19166050000058,221.63855989999138,221.63857100000314,222.1383264999895,222.4538207000005,222.4228282999975,222.42283959999622,223.83757160000096,223.83757160000096,224.12196879999829,space,1,0.2814734999992652,None,,,,,,,,,,,,,,,,,,,,,,,,,,,,,,,,,,,,,,,,,,,,,,,,,,,,,,,,,,,,,,,006,001,2023-11-12_14h08.58.228,untitled,2023.2.3,60.8933665854337,2023-11-12 14h09.07.920587 +0800,
8,condition_1/rightstar.PNG,right,,,,,1,24,49,6,,,,,,,,,224.20424779999303,,,,,,,,,,,,,,,,,,,,,,,,,,,,,,,,,,,,,,,,,,,,,224.12237529999402,224.20424779999303,224.63923929999874,224.6392516999913,225.12268200000108,225.58086239999102,225.40533749999304,225.40536079999583,226.75907309999457,226.75907309999457,227.13852629999747,right,1,0.3722732000023825,None,,,,,,,,,,,,,,,,,,,,,,,,,,,,,,,,,,,,,,,,,,,,,,,,,,,,,,,,,,,,,,,006,001,2023-11-12_14h08.58.228,untitled,2023.2.3,60.8933665854337,2023-11-12 14h09.07.920587 +0800,
,,,,,,,,,,,,,,,,,,,,,,,,,,,,,,,,,,,,,,,,,,,,,,,,,,,,,,,,,,,,,,,,,,,,,,,,,,,,,,,,227.1388042000035,227.15444499999285,227.15444499999285,231.32196279999334,space,4.163564000002225,None,,,,,,,,,,,,,,,,,,,,,,,,,,,,,,,,,,,,,,,,,,,,,,,,,,,,,,,006,001,2023-11-12_14h08.58.228,untitled,2023.2.3,60.8933665854337,2023-11-12 14h09.07.920587 +0800,
,,,,,,,,,,,,,,,,,,,,,,,,,,,,,,,,,,,,,,,,,,,,,,,,,,,,,,,,,,,,,,,,,,,,,,,,,,,,,,,,,,,,,,,231.32198719998996,231.33789640000032,231.33789640000032,246.33855570000014,space,14.9853371999925,None,,,,,,,,,,,,,,,,,,,,,,,,,,,,,,,,,,,,,,,,,,,,,,,,006,001,2023-11-12_14h08.58.228,untitled,2023.2.3,60.8933665854337,2023-11-12 14h09.07.920587 +0800,
2,test2/leftstar.PNG,left,,,,,,,,,0,0,0,4,,,,,246.41561799999909,,,,,,,,,,,,,,,,,,,,,,,,,,,,,,,,,,,,,,,,,,,,,,,,,,,,,,,,,,,,,,,,,,,,,,,,,,,246.34245060000103,246.41561799999909,246.85489750000124,246.85490939999,247.33858480000345,247.77700119999645,247.6220822000032,247.62209740000253,248.95502329999,248.95502329999,249.50606210000115,left,0.5438752000045497,None,,,,,,,,,,,,,,,,,,,,,,,,,,,,,,,,,,006,001,2023-11-12_14h08.58.228,untitled,2023.2.3,60.8933665854337,2023-11-12 14h09.07.920587 +0800,
8,test2/rightstar.PNG,space,,,,,,,,,0,1,1,1,,,,,249.57470240000112,,,,,,,,,,,,,,,,,,,,,,,,,,,,,,,,,,,,,,,,,,,,,,,,,,,,,,,,,,,,,,,,,,,,,,,,,,,249.50650059999316,249.57470240000112,250.0226888999896,250.0227004999906,250.5213434999896,250.9723612999951,250.80539009999484,250.8054012999928,252.12138919999416,252.12138919999416,252.4895561000012,space,0.36516060000576545,None,,,,,,,,,,,,,,,,,,,,,,,,,,,,,,,,,,006,001,2023-11-12_14h08.58.228,untitled,2023.2.3,60.8933665854337,2023-11-12 14h09.07.920587 +0800,
1,test2/blank.PNG,space,,,,,,,,,0,2,2,2,,,,,252.5550402999943,,,,,,,,,,,,,,,,,,,,,,,,,,,,,,,,,,,,,,,,,,,,,,,,,,,,,,,,,,,,,,,,,,,,,,,,,,,252.48991049999313,252.5550402999943,253.00578079999832,253.00579260000086,253.50497909999103,253.82873310000286,253.78894109999237,253.788953700001,255.20460099999036,255.20460099999036,256.7720791000029,space,1.5519085999985691,None,256.00438810000196,,,,,,,,,,,,,,,,,,,,,,,,,,,,,,,,,006,001,2023-11-12_14h08.58.228,untitled,2023.2.3,60.8933665854337,2023-11-12 14h09.07.920587 +0800,
1,test2/leftstar.PNG,left,,,,,,,,,0,3,3,0,,,,,256.8372543000005,,,,,,,,,,,,,,,,,,,,,,,,,,,,,,,,,,,,,,,,,,,,,,,,,,,,,,,,,,,,,,,,,,,,,,,,,,,256.7724174999894,256.8372543000005,257.2883803000004,257.28839190000144,257.7725322999904,258.2151644999976,258.0559191999928,258.05592919999617,259.42118979999213,259.42118979999213,259.83885879999434,left,0.4059345999994548,None,,,,,,,,,,,,,,,,,,,,,,,,,,,,,,,,,,006,001,2023-11-12_14h08.58.228,untitled,2023.2.3,60.8933665854337,2023-11-12 14h09.07.920587 +0800,
9,test2/rightstar.PNG,space,,,,,,,,,0,4,4,3,,,,,259.91110440000193,,,,,,,,,,,,,,,,,,,,,,,,,,,,,,,,,,,,,,,,,,,,,,,,,,,,,,,,,,,,,,,,,,,,,,,,,,,259.8392004999914,259.91110440000193,260.35519859999476,260.3552103999973,260.8396846999967,261.3208034999989,261.13847229999374,261.1384854999924,262.43723929999396,262.43723929999396,262.7224494999973,space,0.27785040000162553,None,,,,,,,,,,,,,,,,,,,,,,,,,,,,,,,,,,006,001,2023-11-12_14h08.58.228,untitled,2023.2.3,60.8933665854337,2023-11-12 14h09.07.920587 +0800,
8,test2/rightstar.PNG,space,,,,,,,,,0,5,5,5,,,,,262.7942117999919,,,,,,,,,,,,,,,,,,,,,,,,,,,,,,,,,,,,,,,,,,,,,,,,,,,,,,,,,,,,,,,,,,,,,,,,,,,262.7228452999989,262.7942117999919,263.2381186999992,263.2381306000025,263.73869499999273,264.176813500002,264.0222677999991,264.0222791999986,265.3377327999915,265.3377327999915,265.87169089999225,space,0.5173813000001246,None,,,,,,,,,,,,,,,,,,,,,,,,,,,,,,,,,,006,001,2023-11-12_14h08.58.228,untitled,2023.2.3,60.8933665854337,2023-11-12 14h09.07.920587 +0800,
,,,,,,,,,,,,,,,,,,,,,,,,,,,,,,,,,,,,,,,,,,,,,,,,,,,,,,,,,,,,,,,,,,,,,,,,,,,,,,,,,,,,,,,,,,,,,,,,,,,,,,,,,,,,,265.8719229999988,265.88792579999426,265.88792579999426,266.88781200000085,266.9051000999898,space,1.002419500000542,None,,,,,,,,,,,,,,,,,,,,,,,,,006,001,2023-11-12_14h08.58.228,untitled,2023.2.3,60.8933665854337,2023-11-12 14h09.07.920587 +0800,
,,,,,,,,,,,,,,,,,,,,,,,,,,,,,,,,,,,,,,,,,,,,,,,,,,,,,,,,,,,,,,,,,,,,,,,,,,,,,,,,,,,,,,,,,,,,,,,,,,,,,,,,,,,,,,,,,,,,,266.9051255999948,266.9216068999958,266.9216068999958,267.9216042999906,268.05576639999344,space,1.1326390999893192,None,,,,,,,,,,,,,,,,,006,001,2023-11-12_14h08.58.228,untitled,2023.2.3,60.8933665854337,2023-11-12 14h09.07.920587 +0800,
2,condition_2/leftstar.PNG,left,,,,,,,,,,,,,0,0,0,1,268.132007799999,,,,,,,,,,,,,,,,,,,,,,,,,,,,,,,,,,,,,,,,,,,,,,,,,,,,,,,,,,,,,,,,,,,,,,,,,,,,,,,,,,,,,,,,,,,,,,,,,,,,,,,,,,268.06136069999775,268.132007799999,268.5718978999939,268.57191069998953,269.054713599995,269.50474669999676,269.3384417999914,269.33845460000157,270.6711604000011,270.6711604000011,271.1059183999896,left,1,0.4212858000100823,None,,006,001,2023-11-12_14h08.58.228,untitled,2023.2.3,60.8933665854337,2023-11-12 14h09.07.920587 +0800,
9,condition_2/rightstar.PNG,space,,,,,,,,,,,,,0,1,1,15,271.1736511999916,,,,,,,,,,,,,,,,,,,,,,,,,,,,,,,,,,,,,,,,,,,,,,,,,,,,,,,,,,,,,,,,,,,,,,,,,,,,,,,,,,,,,,,,,,,,,,,,,,,,,,,,,,271.1064287999907,271.1736511999916,271.62132369999017,271.62133509998966,272.1226008999947,,272.40657239999564,272.4065854999935,273.72103829999105,273.72103829999105,273.9887962999928,space,1,0.25477840000530705,None,,006,001,2023-11-12_14h08.58.228,untitled,2023.2.3,60.8933665854337,2023-11-12 14h09.07.920587 +0800,
9,condition_2/leftstar.PNG,space,,,,,,,,,,,,,0,2,2,24,274.0534947999986,,,,,,,,,,,,,,,,,,,,,,,,,,,,,,,,,,,,,,,,,,,,,,,,,,,,,,,,,,,,,,,,,,,,,,,,,,,,,,,,,,,,,,,,,,,,,,,,,,,,,,,,,,273.98930809999,274.0534947999986,274.5047307999921,274.50474429999304,275.00474279999617,275.4542336000013,275.2889412999939,275.28895229999034,276.5877837000007,276.5877837000007,276.70680159999756,space,1,0.1177698999963468,None,,006,001,2023-11-12_14h08.58.228,untitled,2023.2.3,60.8933665854337,2023-11-12 14h09.07.920587 +0800,
9,condition_2/blank.PNG,space,,,,,,,,,,,,,0,3,3,11,276.78161839999666,,,,,,,,,,,,,,,,,,,,,,,,,,,,,,,,,,,,,,,,,,,,,,,,,,,,,,,,,,,,,,,,,,,,,,,,,,,,,,,,,,,,,,,,,,,,,,,,,,,,,,,,,,276.70728360000066,276.78161839999666,277.2218214000022,277.22184669999115,277.70547200000146,278.0210364999948,277.9889875999943,277.98900409998896,279.4207621999958,279.4207621999958,280.65544729999965,space,1,1.2236828999884892,None,280.22098359999654,006,001,2023-11-12_14h08.58.228,untitled,2023.2.3,60.8933665854337,2023-11-12 14h09.07.920587 +0800,
8,condition_2/blank.PNG,space,,,,,,,,,,,,,0,4,4,10,280.72386279999046,,,,,,,,,,,,,,,,,,,,,,,,,,,,,,,,,,,,,,,,,,,,,,,,,,,,,,,,,,,,,,,,,,,,,,,,,,,,,,,,,,,,,,,,,,,,,,,,,,,,,,,,,,280.65609059999406,280.72386279999046,281.1710441999894,281.1710571000003,281.6719280999969,281.9884164999967,281.9554310999956,281.95544269999664,283.27119339999626,283.27119339999626,284.08905389999563,space,1,0.8046104999957606,None,284.0716163999896,006,001,2023-11-12_14h08.58.228,untitled,2023.2.3,60.8933665854337,2023-11-12 14h09.07.920587 +0800,
2,condition_2/rightstar.PNG,right,,,,,,,,,,,,,0,5,5,13,284.1552582000004,,,,,,,,,,,,,,,,,,,,,,,,,,,,,,,,,,,,,,,,,,,,,,,,,,,,,,,,,,,,,,,,,,,,,,,,,,,,,,,,,,,,,,,,,,,,,,,,,,,,,,,,,,284.0894516999979,284.1552582000004,284.60489329999837,284.6049074999901,285.0889915000007,285.53290330000164,285.3724710999959,285.37248479999835,286.7385274999979,286.7385274999979,287.13920269999653,right,1,0.39883210000698455,None,,006,001,2023-11-12_14h08.58.228,untitled,2023.2.3,60.8933665854337,2023-11-12 14h09.07.920587 +0800,
9,condition_2/rightstar.PNG,space,,,,,,,,,,,,,0,6,6,7,287.2066627000022,,,,,,,,,,,,,,,,,,,,,,,,,,,,,,,,,,,,,,,,,,,,,,,,,,,,,,,,,,,,,,,,,,,,,,,,,,,,,,,,,,,,,,,,,,,,,,,,,,,,,,,,,,287.1395870999986,287.2066627000022,287.6548849999963,287.65489959999104,288.15485510000144,288.61613110000326,288.4386002999963,288.43861109999125,289.7373159999988,289.7373159999988,289.8055539999914,space,1,0.05911470000864938,None,,006,001,2023-11-12_14h08.58.228,untitled,2023.2.3,60.8933665854337,2023-11-12 14h09.07.920587 +0800,
1,condition_2/rightstar.PNG,right,,,,,,,,,,,,,0,7,7,12,289.8875032999931,,,,,,,,,,,,,,,,,,,,,,,,,,,,,,,,,,,,,,,,,,,,,,,,,,,,,,,,,,,,,,,,,,,,,,,,,,,,,,,,,,,,,,,,,,,,,,,,,,,,,,,,,,289.8059477999923,289.8875032999931,290.32104860000254,290.32106329999806,290.8208874999982,291.27179420000175,291.1048946999945,291.1049059999932,292.4043296000018,292.4043296000018,292.80539199999475,right,1,0.38728890000493266,None,,006,001,2023-11-12_14h08.58.228,untitled,2023.2.3,60.8933665854337,2023-11-12 14h09.07.920587 +0800,
2,condition_2/blank.PNG,space,,,,,,,,,,,,,0,8,8,20,292.8803920999926,,,,,,,,,,,,,,,,,,,,,,,,,,,,,,,,,,,,,,,,,,,,,,,,,,,,,,,,,,,,,,,,,,,,,,,,,,,,,,,,,,,,,,,,,,,,,,,,,,,,,,,,,,292.8057734000031,292.8803920999926,293.3214974000002,293.32151120000344,293.80453559999296,294.1207762999984,294.0881922999979,294.0882053999958,295.49657269999443,295.49657269999443,296.6716649000009,space,1,1.16133470000932,None,296.30430979999073,006,001,2023-11-12_14h08.58.228,untitled,2023.2.3,60.8933665854337,2023-11-12 14h09.07.920587 +0800,
2,condition_2/rightstar.PNG,left,,,,,,,,,,,,,0,9,9,5,296.7358106999891,,,,,,,,,,,,,,,,,,,,,,,,,,,,,,,,,,,,,,,,,,,,,,,,,,,,,,,,,,,,,,,,,,,,,,,,,,,,,,,,,,,,,,,,,,,,,,,,,,,,,,,,,,296.67206479999004,296.7358106999891,297.1881274999905,297.188141599996,297.6714381999918,298.1189627999993,297.9562828999915,297.9563157999946,299.320988099993,299.320988099993,299.88833269999304,right,0,0.5574068999994779,None,,006,001,2023-11-12_14h08.58.228,untitled,2023.2.3,60.8933665854337,2023-11-12 14h09.07.920587 +0800,
8,condition_2/rightstar.PNG,space,,,,,,,,,,,,,0,10,10,6,299.9587285000016,,,,,,,,,,,,,,,,,,,,,,,,,,,,,,,,,,,,,,,,,,,,,,,,,,,,,,,,,,,,,,,,,,,,,,,,,,,,,,,,,,,,,,,,,,,,,,,,,,,,,,,,,,299.88869500000146,299.9587285000016,300.40448079998896,300.404492799993,300.8879767999897,301.3289969999896,301.1719771999924,301.17199119999714,302.4876734999998,302.4876734999998,302.85612919999403,space,1,0.3597295999934431,None,,006,001,2023-11-12_14h08.58.228,untitled,2023.2.3,60.8933665854337,2023-11-12 14h09.07.920587 +0800,
1,condition_2/rightstar.PNG,right,,,,,,,,,,,,,0,11,11,21,302.92093269999896,,,,,,,,,,,,,,,,,,,,,,,,,,,,,,,,,,,,,,,,,,,,,,,,,,,,,,,,,,,,,,,,,,,,,,,,,,,,,,,,,,,,,,,,,,,,,,,,,,,,,,,,,,302.8565135999961,302.92093269999896,303.3587928999914,303.35880570000154,303.8721959999966,304.3209674999962,304.1561986000015,304.1562108999933,305.47163099999307,305.47163099999307,306.0558766999893,right,1,0.568073699992965,None,,006,001,2023-11-12_14h08.58.228,untitled,2023.2.3,60.8933665854337,2023-11-12 14h09.07.920587 +0800,
1,condition_2/rightstar.PNG,right,,,,,,,,,,,,,0,12,12,4,306.12171490000037,,,,,,,,,,,,,,,,,,,,,,,,,,,,,,,,,,,,,,,,,,,,,,,,,,,,,,,,,,,,,,,,,,,,,,,,,,,,,,,,,,,,,,,,,,,,,,,,,,,,,,,,,,306.05626779999875,306.12171490000037,306.57172939999145,306.5717418999993,307.07147769999574,307.5146481999982,307.3557443000027,307.3557562999922,308.6708961999975,308.6708961999975,309.0555538999906,right,1,0.37798190000467,None,,006,001,2023-11-12_14h08.58.228,untitled,2023.2.3,60.8933665854337,2023-11-12 14h09.07.920587 +0800,
8,condition_2/leftstar.PNG,space,,,,,,,,,,,,,0,13,13,18,309.12446599999384,,,,,,,,,,,,,,,,,,,,,,,,,,,,,,,,,,,,,,,,,,,,,,,,,,,,,,,,,,,,,,,,,,,,,,,,,,,,,,,,,,,,,,,,,,,,,,,,,,,,,,,,,,309.0559221000003,309.12446599999384,309.57136360000004,309.5713761999941,310.0543573000032,310.4996056999953,310.33873779998976,310.33874919998925,311.6542006999953,311.6542006999953,312.12205799999356,space,1,0.45204150000063237,None,,006,001,2023-11-12_14h08.58.228,untitled,2023.2.3,60.8933665854337,2023-11-12 14h09.07.920587 +0800,
8,condition_2/rightstar.PNG,space,,,,,,,,,,,,,0,14,14,14,312.18699370000104,,,,,,,,,,,,,,,,,,,,,,,,,,,,,,,,,,,,,,,,,,,,,,,,,,,,,,,,,,,,,,,,,,,,,,,,,,,,,,,,,,,,,,,,,,,,,,,,,,,,,,,,,,312.1224937999941,312.18699370000104,312.6385642999958,312.638578099999,313.1214566999988,313.56457479999517,313.4050617999892,313.40508179999597,314.7376595999958,314.7376595999958,314.98852009999973,space,1,0.24011699999391567,None,,006,001,2023-11-12_14h08.58.228,untitled,2023.2.3,60.8933665854337,2023-11-12 14h09.07.920587 +0800,
8,condition_2/leftstar.PNG,space,,,,,,,,,,,,,0,15,15,2,315.05440629999794,,,,,,,,,,,,,,,,,,,,,,,,,,,,,,,,,,,,,,,,,,,,,,,,,,,,,,,,,,,,,,,,,,,,,,,,,,,,,,,,,,,,,,,,,,,,,,,,,,,,,,,,,,314.9889606999932,315.05440629999794,315.50481549999677,315.5048286999954,316.0042780999938,316.4469841999962,316.28871389999404,316.2887258999981,317.58752839999215,317.58752839999215,317.8555752999964,space,1,0.2659945999912452,None,,006,001,2023-11-12_14h08.58.228,untitled,2023.2.3,60.8933665854337,2023-11-12 14h09.07.920587 +0800,
8,condition_2/rightstar.PNG,space,,,,,,,,,,,,,0,16,16,23,317.92679569999746,,,,,,,,,,,,,,,,,,,,,,,,,,,,,,,,,,,,,,,,,,,,,,,,,,,,,,,,,,,,,,,,,,,,,,,,,,,,,,,,,,,,,,,,,,,,,,,,,,,,,,,,,,317.855997199993,317.92679569999746,318.37520499998936,318.37521820000256,318.8558202999993,319.292105799992,319.1395180999971,319.13953030000266,320.45411399999284,320.45411399999284,320.6224232999957,space,1,0.16475419999915175,None,,006,001,2023-11-12_14h08.58.228,untitled,2023.2.3,60.8933665854337,2023-11-12 14h09.07.920587 +0800,
2,condition_2/blank.PNG,space,,,,,,,,,,,,,0,17,17,9,320.69170149999263,,,,,,,,,,,,,,,,,,,,,,,,,,,,,,,,,,,,,,,,,,,,,,,,,,,,,,,,,,,,,,,,,,,,,,,,,,,,,,,,,,,,,,,,,,,,,,,,,,,,,,,,,,320.62278530000185,320.69170149999263,321.13802009999927,321.13803409998945,321.6380358000024,321.95452129999467,321.9212555999984,321.9212769000005,323.32121599999664,323.32121599999664,324.4727298999933,space,1,1.1387758999917423,None,324.1209509999899,006,001,2023-11-12_14h08.58.228,untitled,2023.2.3,60.8933665854337,2023-11-12 14h09.07.920587 +0800,
1,condition_2/leftstar.PNG,left,,,,,,,,,,,,,0,18,18,0,324.5367425000004,,,,,,,,,,,,,,,,,,,,,,,,,,,,,,,,,,,,,,,,,,,,,,,,,,,,,,,,,,,,,,,,,,,,,,,,,,,,,,,,,,,,,,,,,,,,,,,,,,,,,,,,,,324.47317979999934,324.5367425000004,324.98757450000267,324.98758760000055,325.48860499999137,325.93192940000154,325.7715528999979,325.77157719999377,327.1376959999907,327.1376959999907,327.45534639999096,left,1,0.31410619999223854,None,,006,001,2023-11-12_14h08.58.228,untitled,2023.2.3,60.8933665854337,2023-11-12 14h09.07.920587 +0800,
2,condition_2/leftstar.PNG,left,,,,,,,,,,,,,0,19,19,22,327.530168199999,,,,,,,,,,,,,,,,,,,,,,,,,,,,,,,,,,,,,,,,,,,,,,,,,,,,,,,,,,,,,,,,,,,,,,,,,,,,,,,,,,,,,,,,,,,,,,,,,,,,,,,,,,327.4557208999904,327.530168199999,327.9562399999995,327.9562605999963,328.4551191999926,328.8999688999902,328.7395331000007,328.7395438999956,330.054310099993,330.054310099993,330.4548627999902,left,1,0.3888138999900548,None,,006,001,2023-11-12_14h08.58.228,untitled,2023.2.3,60.8933665854337,2023-11-12 14h09.07.920587 +0800,
9,condition_2/leftstar.PNG,space,,,,,,,,,,,,,0,20,20,3,330.5200928999984,,,,,,,,,,,,,,,,,,,,,,,,,,,,,,,,,,,,,,,,,,,,,,,,,,,,,,,,,,,,,,,,,,,,,,,,,,,,,,,,,,,,,,,,,,,,,,,,,,,,,,,,,,330.45526069999323,330.5200928999984,330.9558840999962,330.95589630000177,331.45468840000103,331.8954958999966,331.7397495999903,331.739763199992,333.0540040999913,333.0540040999913,333.39002049999544,space,1,0.3340511999995215,None,,006,001,2023-11-12_14h08.58.228,untitled,2023.2.3,60.8933665854337,2023-11-12 14h09.07.920587 +0800,
2,condition_2/leftstar.PNG,left,,,,,,,,,,,,,0,21,21,17,333.4600539999956,,,,,,,,,,,,,,,,,,,,,,,,,,,,,,,,,,,,,,,,,,,,,,,,,,,,,,,,,,,,,,,,,,,,,,,,,,,,,,,,,,,,,,,,,,,,,,,,,,,,,,,,,,333.39057299999695,333.4600539999956,333.90461250000226,333.9046240000025,334.40432200000214,334.84606909999275,334.6880147999909,334.6880261999904,336.00389729999006,336.00389729999006,336.4050227999978,left,1,0.3875138000003062,None,,006,001,2023-11-12_14h08.58.228,untitled,2023.2.3,60.8933665854337,2023-11-12 14h09.07.920587 +0800,
1,condition_2/blank.PNG,space,,,,,,,,,,,,,0,22,22,8,336.4864002999966,,,,,,,,,,,,,,,,,,,,,,,,,,,,,,,,,,,,,,,,,,,,,,,,,,,,,,,,,,,,,,,,,,,,,,,,,,,,,,,,,,,,,,,,,,,,,,,,,,,,,,,,,,336.405454199994,336.4864002999966,336.92291949999344,336.92293329999666,337.40502269999706,337.7383415999939,337.6882876000018,337.6883005999989,339.1054651000013,339.1054651000013,340.08824489999097,space,1,0.9789590000000317,None,339.92088809999404,006,001,2023-11-12_14h08.58.228,untitled,2023.2.3,60.8933665854337,2023-11-12 14h09.07.920587 +0800,
1,condition_2/leftstar.PNG,left,,,,,,,,,,,,,0,23,23,16,340.1577624999918,,,,,,,,,,,,,,,,,,,,,,,,,,,,,,,,,,,,,,,,,,,,,,,,,,,,,,,,,,,,,,,,,,,,,,,,,,,,,,,,,,,,,,,,,,,,,,,,,,,,,,,,,,340.0886290999915,340.1577624999918,340.6051968999964,340.6052095999912,341.08806979999645,341.5526220999891,341.37188539998897,341.3718968999892,342.733315999998,342.733315999998,343.1226369999931,left,1,0.37874460000602994,None,,006,001,2023-11-12_14h08.58.228,untitled,2023.2.3,60.8933665854337,2023-11-12 14h09.07.920587 +0800,
9,condition_2/leftstar.PNG,space,,,,,,,,,,,,,0,24,24,19,343.1932412000024,,,,,,,,,,,,,,,,,,,,,,,,,,,,,,,,,,,,,,,,,,,,,,,,,,,,,,,,,,,,,,,,,,,,,,,,,,,,,,,,,,,,,,,,,,,,,,,,,,,,,,,,,,343.1235384000029,343.1932412000024,343.6385278999951,343.6385408999922,344.1379910999967,344.59696109998913,344.4219540999911,344.4219651000021,345.7376332999993,345.7376332999993,346.1383228999912,space,1,0.38405510000302456,None,,006,001,2023-11-12_14h08.58.228,untitled,2023.2.3,60.8933665854337,2023-11-12 14h09.07.920587 +0800,
2,condition_2/leftstar.PNG,left,,,,,,,,,,,,,1,0,25,1,346.20317619999696,,,,,,,,,,,,,,,,,,,,,,,,,,,,,,,,,,,,,,,,,,,,,,,,,,,,,,,,,,,,,,,,,,,,,,,,,,,,,,,,,,,,,,,,,,,,,,,,,,,,,,,,,,346.13869330000307,346.20317619999696,346.639205200001,346.6392177999951,347.13796189999266,347.5903302999941,347.4229013000004,347.42291779999505,348.7379799999908,348.7379799999908,349.13972269999795,left,1,0.3998406999889994,None,,006,001,2023-11-12_14h08.58.228,untitled,2023.2.3,60.8933665854337,2023-11-12 14h09.07.920587 +0800,
8,condition_2/leftstar.PNG,space,,,,,,,,,,,,,1,1,26,2,349.20385009999154,,,,,,,,,,,,,,,,,,,,,,,,,,,,,,,,,,,,,,,,,,,,,,,,,,,,,,,,,,,,,,,,,,,,,,,,,,,,,,,,,,,,,,,,,,,,,,,,,,,,,,,,,,349.14017749999766,349.20385009999154,349.6547778999957,349.65479230000346,350.13871259998996,350.5792061999964,350.42165560000285,350.42166569999245,351.73708739998983,351.73708739998983,351.9883037999971,space,1,0.23923890000151005,None,,006,001,2023-11-12_14h08.58.228,untitled,2023.2.3,60.8933665854337,2023-11-12 14h09.07.920587 +0800,
8,condition_2/leftstar.PNG,space,,,,,,,,,,,,,1,2,27,18,352.0716415999923,,,,,,,,,,,,,,,,,,,,,,,,,,,,,,,,,,,,,,,,,,,,,,,,,,,,,,,,,,,,,,,,,,,,,,,,,,,,,,,,,,,,,,,,,,,,,,,,,,,,,,,,,,351.98869159999595,352.0716415999923,352.5051353000017,352.5051486000011,352.98906619999616,353.43147689999023,353.27197079999314,353.2719853000017,354.5876616000023,354.5876616000023,354.805603899993,space,1,0.21070909999252763,None,,006,001,2023-11-12_14h08.58.228,untitled,2023.2.3,60.8933665854337,2023-11-12 14h09.07.920587 +0800,
2,condition_2/rightstar.PNG,right,,,,,,,,,,,,,1,3,28,13,354.8697408000007,,,,,,,,,,,,,,,,,,,,,,,,,,,,,,,,,,,,,,,,,,,,,,,,,,,,,,,,,,,,,,,,,,,,,,,,,,,,,,,,,,,,,,,,,,,,,,,,,,,,,,,,,,354.80601499999466,354.8697408000007,355.3216354999895,355.3216490999912,355.80438929999946,356.25415670000075,356.08811799999967,356.0881296000007,357.4210030999966,357.4210030999966,357.7573332999891,right,1,0.3242218000086723,None,,006,001,2023-11-12_14h08.58.228,untitled,2023.2.3,60.8933665854337,2023-11-12 14h09.07.920587 +0800,
1,condition_2/leftstar.PNG,left,,,,,,,,,,,,,1,4,29,16,357.82714969999506,,,,,,,,,,,,,,,,,,,,,,,,,,,,,,,,,,,,,,,,,,,,,,,,,,,,,,,,,,,,,,,,,,,,,,,,,,,,,,,,,,,,,,,,,,,,,,,,,,,,,,,,,,357.75771439999517,357.82714969999506,358.27111590000277,358.2711299999937,358.7721337999974,,359.07115659999545,359.07117019999714,360.3709841999953,360.3709841999953,360.738477299994,left,1,0.35068040000624023,None,,006,001,2023-11-12_14h08.58.228,untitled,2023.2.3,60.8933665854337,2023-11-12 14h09.07.920587 +0800,
8,condition_2/rightstar.PNG,space,,,,,,,,,,,,,1,5,30,14,360.81312019999314,,,,,,,,,,,,,,,,,,,,,,,,,,,,,,,,,,,,,,,,,,,,,,,,,,,,,,,,,,,,,,,,,,,,,,,,,,,,,,,,,,,,,,,,,,,,,,,,,,,,,,,,,,360.73903979999886,360.81312019999314,361.25521289999597,361.25522710000223,361.7390575000027,362.18764160000137,362.02325539999583,362.02326729999913,363.33753589999105,363.33753589999105,363.3892175999936,space,1,0.04310979999718256,None,,006,001,2023-11-12_14h08.58.228,untitled,2023.2.3,60.8933665854337,2023-11-12 14h09.07.920587 +0800,
2,condition_2/leftstar.PNG,left,,,,,,,,,,,,,1,6,31,17,363.46241939999163,,,,,,,,,,,,,,,,,,,,,,,,,,,,,,,,,,,,,,,,,,,,,,,,,,,,,,,,,,,,,,,,,,,,,,,,,,,,,,,,,,,,,,,,,,,,,,,,,,,,,,,,,,363.38973599999736,363.46241939999163,363.8897009999928,363.8897208999988,364.4047295999917,364.8467865999992,364.688227199993,364.6882384999917,365.98961379998946,365.98961379998946,366.3056776000012,left,1,0.3135623999987729,None,,006,001,2023-11-12_14h08.58.228,untitled,2023.2.3,60.8933665854337,2023-11-12 14h09.07.920587 +0800,
1,condition_2/blank.PNG,space,,,,,,,,,,,,,1,7,32,8,366.3696765999921,,,,,,,,,,,,,,,,,,,,,,,,,,,,,,,,,,,,,,,,,,,,,,,,,,,,,,,,,,,,,,,,,,,,,,,,,,,,,,,,,,,,,,,,,,,,,,,,,,,,,,,,,,366.30612480000127,366.3696765999921,366.82190640000044,366.82192029998987,367.30645989999175,367.6206144000025,367.5894449999905,367.5894566999923,369.0039749999996,369.0039749999996,369.3883397000027,space,1,0.3736971000034828,None,,006,001,2023-11-12_14h08.58.228,untitled,2023.2.3,60.8933665854337,2023-11-12 14h09.07.920587 +0800,
1,condition_2/rightstar.PNG,right,,,,,,,,,,,,,1,8,33,12,369.4598571999959,,,,,,,,,,,,,,,,,,,,,,,,,,,,,,,,,,,,,,,,,,,,,,,,,,,,,,,,,,,,,,,,,,,,,,,,,,,,,,,,,,,,,,,,,,,,,,,,,,,,,,,,,,369.3887117999984,369.4598571999959,369.9055686999927,369.90558079999755,370.38812950000283,370.8370780999976,370.6715852999914,370.6716117999895,372.0352019999991,372.0352019999991,372.3893529999914,right,1,0.35313859999587294,None,,006,001,2023-11-12_14h08.58.228,untitled,2023.2.3,60.8933665854337,2023-11-12 14h09.07.920587 +0800,
1,condition_2/leftstar.PNG,left,,,,,,,,,,,,,1,9,34,0,372.4622623000032,,,,,,,,,,,,,,,,,,,,,,,,,,,,,,,,,,,,,,,,,,,,,,,,,,,,,,,,,,,,,,,,,,,,,,,,,,,,,,,,,,,,,,,,,,,,,,,,,,,,,,,,,,372.38982879999094,372.4622623000032,372.9057291999925,372.9057487999962,373.4050556000002,373.8455719999911,373.6886145000026,373.68862689999514,375.00420440000016,375.00420440000016,375.3721959999966,left,1,0.3518806000065524,None,,006,001,2023-11-12_14h08.58.228,untitled,2023.2.3,60.8933665854337,2023-11-12 14h09.07.920587 +0800,
2,condition_2/blank.PNG,space,,,,,,,,,,,,,1,10,35,9,375.44695769999817,,,,,,,,,,,,,,,,,,,,,,,,,,,,,,,,,,,,,,,,,,,,,,,,,,,,,,,,,,,,,,,,,,,,,,,,,,,,,,,,,,,,,,,,,,,,,,,,,,,,,,,,,,375.37256009998964,375.44695769999817,375.8881604999915,375.88817389999167,376.37157099999604,376.6877928999893,376.6550197000033,376.6550333999912,378.05416200000036,378.05416200000036,378.82426690000284,space,1,0.7583658999938052,None,,006,001,2023-11-12_14h08.58.228,untitled,2023.2.3,60.8933665854337,2023-11-12 14h09.07.920587 +0800,
1,condition_2/rightstar.PNG,right,,,,,,,,,,,,,1,11,36,4,378.88893489999464,,,,,,,,,,,,,,,,,,,,,,,,,,,,,,,,,,,,,,,,,,,,,,,,,,,,,,,,,,,,,,,,,,,,,,,,,,,,,,,,,,,,,,,,,,,,,,,,,,,,,,,,,,378.8247796999931,378.88893489999464,379.33740560000297,379.33741819999705,379.83798399999796,380.2830269999977,380.1213628999976,380.12137419999635,381.4937401999923,381.4937401999923,381.9047839999985,right,1,0.3962100999924587,None,,006,001,2023-11-12_14h08.58.228,untitled,2023.2.3,60.8933665854337,2023-11-12 14h09.07.920587 +0800,
9,condition_2/rightstar.PNG,space,,,,,,,,,,,,,1,12,37,15,381.97509969999373,,,,,,,,,,,,,,,,,,,,,,,,,,,,,,,,,,,,,,,,,,,,,,,,,,,,,,,,,,,,,,,,,,,,,,,,,,,,,,,,,,,,,,,,,,,,,,,,,,,,,,,,,,381.90521319999243,381.97509969999373,382.4214745999925,382.4214869999996,382.9062898999982,383.35422870000184,383.18938479998906,383.1893973999977,384.504111000002,384.504111000002,385.27227849999326,space,1,0.7653991000115639,None,,006,001,2023-11-12_14h08.58.228,untitled,2023.2.3,60.8933665854337,2023-11-12 14h09.07.920587 +0800,
9,condition_2/leftstar.PNG,space,,,,,,,,,,,,,1,13,38,3,385.3368435000011,,,,,,,,,,,,,,,,,,,,,,,,,,,,,,,,,,,,,,,,,,,,,,,,,,,,,,,,,,,,,,,,,,,,,,,,,,,,,,,,,,,,,,,,,,,,,,,,,,,,,,,,,,385.2726568999933,385.3368435000011,385.78825589999906,385.7882687999954,386.2884167000011,386.7374431999924,386.57171079999534,386.5717225999979,387.8716774999921,387.8716774999921,388.45551649999106,space,1,0.5722127000044566,None,,006,001,2023-11-12_14h08.58.228,untitled,2023.2.3,60.8933665854337,2023-11-12 14h09.07.920587 +0800,
9,condition_2/leftstar.PNG,space,,,,,,,,,,,,,1,14,39,19,388.52040969999507,,,,,,,,,,,,,,,,,,,,,,,,,,,,,,,,,,,,,,,,,,,,,,,,,,,,,,,,,,,,,,,,,,,,,,,,,,,,,,,,,,,,,,,,,,,,,,,,,,,,,,,,,,388.4560152999911,388.52040969999507,388.9716492000007,388.9716618999955,389.4713119999942,389.9154334999912,389.7551287999959,389.75513999999384,391.0707801999961,391.0707801999961,391.088874699999,space,1,0.007097900001099333,None,,006,001,2023-11-12_14h08.58.228,untitled,2023.2.3,60.8933665854337,2023-11-12 14h09.07.920587 +0800,
9,condition_2/blank.PNG,space,,,,,,,,,,,,,1,15,40,11,391.1707868999947,,,,,,,,,,,,,,,,,,,,,,,,,,,,,,,,,,,,,,,,,,,,,,,,,,,,,,,,,,,,,,,,,,,,,,,,,,,,,,,,,,,,,,,,,,,,,,,,,,,,,,,,,,391.08924069999193,391.1707868999947,391.60459089999495,391.6046034000028,392.08791799999017,392.4043108999904,392.3717708999902,392.3717828999943,393.78836880000017,393.78836880000017,395.0224320999987,space,1,1.2199219000031007,None,394.58801900000253,006,001,2023-11-12_14h08.58.228,untitled,2023.2.3,60.8933665854337,2023-11-12 14h09.07.920587 +0800,
9,condition_2/rightstar.PNG,space,,,,,,,,,,,,,1,16,41,7,395.08852829999523,,,,,,,,,,,,,,,,,,,,,,,,,,,,,,,,,,,,,,,,,,,,,,,,,,,,,,,,,,,,,,,,,,,,,,,,,,,,,,,,,,,,,,,,,,,,,,,,,,,,,,,,,,395.022810399998,395.08852829999523,395.53839109999535,395.5384045999963,396.03836029999366,396.4771444999933,396.3213732000004,396.3213844999991,397.6749134999991,397.6749134999991,397.83824929999537,space,1,0.15591710001172032,None,,006,001,2023-11-12_14h08.58.228,untitled,2023.2.3,60.8933665854337,2023-11-12 14h09.07.920587 +0800,
2,condition_2/leftstar.PNG,left,,,,,,,,,,,,,1,17,42,22,397.9023758999974,,,,,,,,,,,,,,,,,,,,,,,,,,,,,,,,,,,,,,,,,,,,,,,,,,,,,,,,,,,,,,,,,,,,,,,,,,,,,,,,,,,,,,,,,,,,,,,,,,,,,,,,,,397.8386193999904,397.9023758999974,398.3550153999968,398.35503120000067,398.8393989999895,399.29253429999517,399.1384931999928,399.13850469999306,400.4371794999897,400.4371794999897,400.8718673999974,left,1,0.4275627000024542,None,,006,001,2023-11-12_14h08.58.228,untitled,2023.2.3,60.8933665854337,2023-11-12 14h09.07.920587 +0800,
2,condition_2/rightstar.PNG,left,,,,,,,,,,,,,1,18,43,5,400.9405795999919,,,,,,,,,,,,,,,,,,,,,,,,,,,,,,,,,,,,,,,,,,,,,,,,,,,,,,,,,,,,,,,,,,,,,,,,,,,,,,,,,,,,,,,,,,,,,,,,,,,,,,,,,,400.87223389999417,400.9405795999919,401.38800069999706,401.388014199998,401.8714687999891,402.30938289999904,402.15642119999393,402.156433199998,403.4876194999961,403.4876194999961,403.78870910000114,right,0,0.29213200000231154,None,,006,001,2023-11-12_14h08.58.228,untitled,2023.2.3,60.8933665854337,2023-11-12 14h09.07.920587 +0800,
9,condition_2/leftstar.PNG,space,,,,,,,,,,,,,1,19,44,24,403.8577643000026,,,,,,,,,,,,,,,,,,,,,,,,,,,,,,,,,,,,,,,,,,,,,,,,,,,,,,,,,,,,,,,,,,,,,,,,,,,,,,,,,,,,,,,,,,,,,,,,,,,,,,,,,,403.78909459999704,403.8577643000026,404.3043308999913,404.30434279999463,404.78812279998965,405.23834359999455,405.07165529999475,405.0716689999972,406.3873528999975,406.3873528999975,406.43987950000155,space,1,0.04109759999846574,None,,006,001,2023-11-12_14h08.58.228,untitled,2023.2.3,60.8933665854337,2023-11-12 14h09.07.920587 +0800,
2,condition_2/blank.PNG,space,,,,,,,,,,,,,1,20,45,20,406.510629299999,,,,,,,,,,,,,,,,,,,,,,,,,,,,,,,,,,,,,,,,,,,,,,,,,,,,,,,,,,,,,,,,,,,,,,,,,,,,,,,,,,,,,,,,,,,,,,,,,,,,,,,,,,406.44029549999686,406.510629299999,406.9559825999895,406.955996699995,407.4548489000008,407.7714736999915,407.7388493000035,407.7388607999892,409.1479931999929,409.1479931999929,410.7230293999892,space,1,1.5665021000022534,None,409.9546574999986,006,001,2023-11-12_14h08.58.228,untitled,2023.2.3,60.8933665854337,2023-11-12 14h09.07.920587 +0800,
8,condition_2/blank.PNG,space,,,,,,,,,,,,,1,21,46,10,410.7942473000003,,,,,,,,,,,,,,,,,,,,,,,,,,,,,,,,,,,,,,,,,,,,,,,,,,,,,,,,,,,,,,,,,,,,,,,,,,,,,,,,,,,,,,,,,,,,,,,,,,,,,,,,,,410.72383689999697,410.7942473000003,411.23841969999194,411.23843230000057,411.7387369999924,412.0590452999895,412.0222822999931,412.022298099997,413.3375529999903,413.3375529999903,413.8056407999975,space,1,0.4587922000064282,None,,006,001,2023-11-12_14h08.58.228,untitled,2023.2.3,60.8933665854337,2023-11-12 14h09.07.920587 +0800,
8,condition_2/rightstar.PNG,space,,,,,,,,,,,,,1,22,47,23,413.8708426999947,,,,,,,,,,,,,,,,,,,,,,,,,,,,,,,,,,,,,,,,,,,,,,,,,,,,,,,,,,,,,,,,,,,,,,,,,,,,,,,,,,,,,,,,,,,,,,,,,,,,,,,,,,413.806007399995,413.8708426999947,414.3213568999927,414.3213709999982,414.822259499997,415.27122509999026,415.1052505999978,415.1052633999934,416.444027599995,416.444027599995,417.0392417999974,space,1,0.5940501000004588,None,,006,001,2023-11-12_14h08.58.228,untitled,2023.2.3,60.8933665854337,2023-11-12 14h09.07.920587 +0800,
8,condition_2/rightstar.PNG,space,,,,,,,,,,,,,1,23,48,6,417.10380070000247,,,,,,,,,,,,,,,,,,,,,,,,,,,,,,,,,,,,,,,,,,,,,,,,,,,,,,,,,,,,,,,,,,,,,,,,,,,,,,,,,,,,,,,,,,,,,,,,,,,,,,,,,,417.0397173999954,417.10380070000247,417.55451259999245,417.5545251000003,418.0383090999967,418.47872359999747,418.32183069999155,418.32184819999384,419.65409080000245,419.65409080000245,419.7552837999974,space,1,0.09790949999296572,None,,006,001,2023-11-12_14h08.58.228,untitled,2023.2.3,60.8933665854337,2023-11-12 14h09.07.920587 +0800,
1,condition_2/rightstar.PNG,right,,,,,,,,,,,,,1,24,49,21,419.82543109999096,,,,,,,,,,,,,,,,,,,,,,,,,,,,,,,,,,,,,,,,,,,,,,,,,,,,,,,,,,,,,,,,,,,,,,,,,,,,,,,,,,,,,,,,,,,,,,,,,,,,,,,,,,419.75574439999764,419.82543109999096,420.2712024999928,420.27121649999754,420.75442589999875,421.19410680000146,421.03863919999276,421.03865399998904,422.35400500000105,422.35400500000105,422.7887974999903,right,1,0.4186660999985179,None,,006,001,2023-11-12_14h08.58.228,untitled,2023.2.3,60.8933665854337,2023-11-12 14h09.07.920587 +0800,
