stimuli,star,CorrectAns,trials_3.thisRepN,trials_3.thisTrialN,trials_3.thisN,trials_3.thisIndex,trials.thisRepN,trials.thisTrialN,trials.thisN,trials.thisIndex,trials_4.thisRepN,trials_4.thisTrialN,trials_4.thisN,trials_4.thisIndex,trials_2.thisRepN,trials_2.thisTrialN,trials_2.thisN,trials_2.thisIndex,thisRow.t,notes,routine_21.started,text_9.started,key_resp_8.started,routine_21.stopped,key_resp_8.keys,key_resp_8.rt,key_resp_8.duration,introduction.started,text_6.started,key_resp_5.started,introduction.stopped,key_resp_5.keys,key_resp_5.rt,key_resp_5.duration,routine_14.started,image_6.started,routine_14.stopped,routine_16.started,text_4.started,text_4.stopped,routine_16.stopped,routine_17.started,image_7.started,key_resp_3.started,routine_17.stopped,key_resp_3.keys,key_resp_3.rt,key_resp_3.duration,image_7.stopped,routine_20.started,text_8.started,key_resp_7.started,routine_20.stopped,key_resp_7.keys,key_resp_7.rt,key_resp_7.duration,routine_18.started,text_5.started,key_resp_4.started,routine_18.stopped,key_resp_4.keys,key_resp_4.rt,key_resp_4.duration,trial.started,image_3.started,trial.stopped,routine.started,text_3.started,text_3.stopped,routine.stopped,routine_1.started,image_2.started,key_resp.started,routine_1.stopped,key_resp.keys,key_resp.corr,key_resp.rt,key_resp.duration,image_2.stopped,routine_22.started,text_10.started,key_resp_9.started,routine_22.stopped,key_resp_9.keys,key_resp_9.rt,key_resp_9.duration,routine_19.started,text_7.started,key_resp_6.started,routine_19.stopped,key_resp_6.keys,key_resp_6.rt,key_resp_6.duration,routine_23.started,image_8.started,routine_23.stopped,routine_24.started,text_11.started,text_11.stopped,routine_24.stopped,routine_25.started,image_9.started,key_resp_10.started,image_9.stopped,routine_25.stopped,key_resp_10.keys,key_resp_10.rt,key_resp_10.duration,routine_26.started,text_12.started,key_resp_11.started,text_12.stopped,routine_26.stopped,key_resp_11.keys,key_resp_11.rt,key_resp_11.duration,routine_27.started,text_13.started,key_resp_12.started,text_13.stopped,routine_27.stopped,key_resp_12.keys,key_resp_12.rt,key_resp_12.duration,routine_10.started,image_4.started,routine_10.stopped,routine_11.started,text.started,text.stopped,routine_11.stopped,routine_12.started,image_5.started,key_resp_2.started,routine_12.stopped,key_resp_2.keys,key_resp_2.corr,key_resp_2.rt,key_resp_2.duration,image_5.stopped,participant,session,date,expName,psychopyVersion,frameRate,expStart,
,,,,,,,,,,,,,,,,,,,,,0.003197099999852071,0.007077900000240334,0.007077900000240334,2.522410900000068,space,2.5099190999999337,None,,,,,,,,,,,,,,,,,,,,,,,,,,,,,,,,,,,,,,,,,,,,,,,,,,,,,,,,,,,,,,,,,,,,,,,,,,,,,,,,,,,,,,,,,,,,,,,,,,,,,,,,,,,,,,,,,,010,001,2023-11-12_14h31.39.111,untitled,2023.2.2,59.94158093535291,2023-11-12 14h31.57.479065 +0800,
,,,,,,,,,,,,,,,,,,,,,,,,,,,,2.52246439999999,2.5376139999998486,2.5376139999998486,38.5725582,space,36.030241599999954,None,,,,,,,,,,,,,,,,,,,,,,,,,,,,,,,,,,,,,,,,,,,,,,,,,,,,,,,,,,,,,,,,,,,,,,,,,,,,,,,,,,,,,,,,,,,,,,,,,,,,,,,,,,,010,001,2023-11-12_14h31.39.111,untitled,2023.2.2,59.94158093535291,2023-11-12 14h31.57.479065 +0800,
8,test/rightstar.PNG,space,0,0,0,5,,,,,,,,,,,,,38.76950100000022,,,,,,,,,,,,,,,,38.57958520000011,38.76950100000022,39.08813650000002,39.08815379999987,39.58788110000023,40.163446699999895,39.87201249999998,39.8720658000002,41.19303050000008,41.19303050000008,41.97346779999998,right,0.7775473000001512,None,,,,,,,,,,,,,,,,,,,,,,,,,,,,,,,,,,,,,,,,,,,,,,,,,,,,,,,,,,,,,,,,,,,,,,,,,,,,,,,,,,,,,,,,,,,,,010,001,2023-11-12_14h31.39.111,untitled,2023.2.2,59.94158093535291,2023-11-12 14h31.57.479065 +0800,
1,test/leftstar.PNG,left,0,1,1,0,,,,,,,,,,,,,42.033002600000145,,,,,,,,,,,,,,,,41.974949899999956,42.033002600000145,42.48819030000004,42.48821219999991,42.987394400000085,43.44475590000002,43.271680899999865,43.27170380000007,44.589974399999846,44.589974399999846,45.08964270000024,left,0.48281849999966653,None,,,,,,,,,,,,,,,,,,,,,,,,,,,,,,,,,,,,,,,,,,,,,,,,,,,,,,,,,,,,,,,,,,,,,,,,,,,,,,,,,,,,,,,,,,,,,010,001,2023-11-12_14h31.39.111,untitled,2023.2.2,59.94158093535291,2023-11-12 14h31.57.479065 +0800,
1,test/blank.PNG,space,0,2,2,2,,,,,,,,,,,,,45.147044899999855,,,,,,,,,,,,,,,,45.09054509999987,45.147044899999855,45.604827900000146,45.60485229999995,46.10438010000007,46.539975499999855,46.388811499999974,46.38884240000016,47.70533620000015,47.70533620000015,50.9891547000002,space,3.2743169999998827,None,48.50406520000024,,,,,,,,,,,,,,,,,,,,,,,,,,,,,,,,,,,,,,,,,,,,,,,,,,,,,,,,,,,,,,,,,,,,,,,,,,,,,,,,,,,,,,,,,,,,010,001,2023-11-12_14h31.39.111,untitled,2023.2.2,59.94158093535291,2023-11-12 14h31.57.479065 +0800,
2,test/leftstar.PNG,left,0,3,3,4,,,,,,,,,,,,,51.05616379999992,,,,,,,,,,,,,,,,50.9900461000002,51.05616379999992,51.504960799999935,51.50498419999985,52.004122499999994,52.42359029999989,52.2884253000002,52.288450099999864,53.60621530000026,53.60621530000026,54.17312380000021,left,0.5555248999999094,None,,,,,,,,,,,,,,,,,,,,,,,,,,,,,,,,,,,,,,,,,,,,,,,,,,,,,,,,,,,,,,,,,,,,,,,,,,,,,,,,,,,,,,,,,,,,,010,001,2023-11-12_14h31.39.111,untitled,2023.2.2,59.94158093535291,2023-11-12 14h31.57.479065 +0800,
8,test/rightstar.PNG,space,0,4,4,1,,,,,,,,,,,,,54.23191910000014,,,,,,,,,,,,,,,,54.174042499999814,54.23191910000014,54.688324400000056,54.68836659999988,55.187353599999824,55.59317069999997,55.471936800000094,55.471962000000076,56.78945470000008,56.78945470000008,57.30617690000008,right,0.5105296999995517,None,,,,,,,,,,,,,,,,,,,,,,,,,,,,,,,,,,,,,,,,,,,,,,,,,,,,,,,,,,,,,,,,,,,,,,,,,,,,,,,,,,,,,,,,,,,,,010,001,2023-11-12_14h31.39.111,untitled,2023.2.2,59.94158093535291,2023-11-12 14h31.57.479065 +0800,
9,test/rightstar.PNG,space,0,5,5,3,,,,,,,,,,,,,57.36481630000026,,,,,,,,,,,,,,,,57.30712810000023,57.36481630000026,57.82163840000021,57.82166159999997,58.32092999999986,58.734953900000164,58.605432400000154,58.60546109999996,59.92274760000009,59.92274760000009,60.406629200000225,right,0.46638130000019373,None,,,,,,,,,,,,,,,,,,,,,,,,,,,,,,,,,,,,,,,,,,,,,,,,,,,,,,,,,,,,,,,,,,,,,,,,,,,,,,,,,,,,,,,,,,,,,010,001,2023-11-12_14h31.39.111,untitled,2023.2.2,59.94158093535291,2023-11-12 14h31.57.479065 +0800,
,,,,,,,,,,,,,,,,,,,,,,,,,,,,,,,,,,,,,,,,,,,,,,,,,,60.407330699999875,60.42080010000018,60.42080010000018,65.95674439999993,space,5.522308200000225,None,,,,,,,,,,,,,,,,,,,,,,,,,,,,,,,,,,,,,,,,,,,,,,,,,,,,,,,,,,,,,,,,,,,,,,,,,,,,,,,,,,,,,010,001,2023-11-12_14h31.39.111,untitled,2023.2.2,59.94158093535291,2023-11-12 14h31.57.479065 +0800,
,,,,,,,,,,,,,,,,,,,,,,,,,,,,,,,,,,,,,,,,,,,,,,,,,,,,,,,,,65.9568878,65.97086160000026,65.97086160000026,67.2556367000002,space,1.2734426000001804,None,,,,,,,,,,,,,,,,,,,,,,,,,,,,,,,,,,,,,,,,,,,,,,,,,,,,,,,,,,,,,,,,,,,,,,,,,,,,,,010,001,2023-11-12_14h31.39.111,untitled,2023.2.2,59.94158093535291,2023-11-12 14h31.57.479065 +0800,
8,condition_1/rightstar.PNG,space,,,,,0,0,0,14,,,,,,,,,67.39303629999995,,,,,,,,,,,,,,,,,,,,,,,,,,,,,,,,,,,,,,,,,,,,,67.27425940000012,67.39303629999995,67.77152109999997,67.77154689999998,68.27078130000018,68.85561970000026,68.5544101999999,68.55442970000013,69.87680550000005,69.87680550000005,70.33973539999988,right,0,0.4462342000001627,None,,,,,,,,,,,,,,,,,,,,,,,,,,,,,,,,,,,,,,,,,,,,,,,,,,,,,,,,,,,,,,,010,001,2023-11-12_14h31.39.111,untitled,2023.2.2,59.94158093535291,2023-11-12 14h31.57.479065 +0800,
1,condition_1/rightstar.PNG,right,,,,,0,1,1,21,,,,,,,,,70.39356989999987,,,,,,,,,,,,,,,,,,,,,,,,,,,,,,,,,,,,,,,,,,,,,70.3412045,70.39356989999987,70.85484459999998,70.85486880000008,71.35419210000009,71.76687290000018,71.63875270000017,71.63878939999995,72.95672999999988,72.95672999999988,73.57347570000002,right,1,0.6095173000003342,None,,,,,,,,,,,,,,,,,,,,,,,,,,,,,,,,,,,,,,,,,,,,,,,,,,,,,,,,,,,,,,,010,001,2023-11-12_14h31.39.111,untitled,2023.2.2,59.94158093535291,2023-11-12 14h31.57.479065 +0800,
1,condition_1/leftstar.PNG,left,,,,,0,2,2,16,,,,,,,,,73.63036499999998,,,,,,,,,,,,,,,,,,,,,,,,,,,,,,,,,,,,,,,,,,,,,73.57490439999992,73.63036499999998,74.08816130000014,74.08818580000025,74.58750980000013,75.05034209999985,74.87180709999984,74.87183370000002,76.1895586999999,76.1895586999999,76.58971659999997,left,1,0.38836629999968864,None,,,,,,,,,,,,,,,,,,,,,,,,,,,,,,,,,,,,,,,,,,,,,,,,,,,,,,,,,,,,,,,010,001,2023-11-12_14h31.39.111,untitled,2023.2.2,59.94158093535291,2023-11-12 14h31.57.479065 +0800,
2,condition_1/rightstar.PNG,left,,,,,0,3,3,5,,,,,,,,,76.64558930000021,,,,,,,,,,,,,,,,,,,,,,,,,,,,,,,,,,,,,,,,,,,,,76.59082260000014,76.64558930000021,77.10522200000014,77.1052496000002,77.60441159999982,78.00961400000006,77.88865429999987,77.88868730000013,79.20626249999987,79.20626249999987,79.62314019999985,right,0,0.41453850000016246,None,,,,,,,,,,,,,,,,,,,,,,,,,,,,,,,,,,,,,,,,,,,,,,,,,,,,,,,,,,,,,,,010,001,2023-11-12_14h31.39.111,untitled,2023.2.2,59.94158093535291,2023-11-12 14h31.57.479065 +0800,
2,condition_1/leftstar.PNG,left,,,,,0,4,4,1,,,,,,,,,79.67802080000001,,,,,,,,,,,,,,,,,,,,,,,,,,,,,,,,,,,,,,,,,,,,,79.62430320000021,79.67802080000001,80.13841760000014,80.138461,80.63741029999983,81.04901210000025,80.92238210000005,80.92244310000024,82.2394933999999,82.2394933999999,82.94131349999998,left,1,0.6976227999998628,None,,,,,,,,,,,,,,,,,,,,,,,,,,,,,,,,,,,,,,,,,,,,,,,,,,,,,,,,,,,,,,,010,001,2023-11-12_14h31.39.111,untitled,2023.2.2,59.94158093535291,2023-11-12 14h31.57.479065 +0800,
9,condition_1/leftstar.PNG,space,,,,,0,5,5,19,,,,,,,,,83.00083840000025,,,,,,,,,,,,,,,,,,,,,,,,,,,,,,,,,,,,,,,,,,,,,82.94251609999992,83.00083840000025,83.45482440000023,83.45485020000024,83.95407290000003,84.36633710000024,84.23876950000022,84.23879739999984,85.55617459999985,85.55617459999985,86.20629240000017,left,0,0.6401806999997461,None,,,,,,,,,,,,,,,,,,,,,,,,,,,,,,,,,,,,,,,,,,,,,,,,,,,,,,,,,,,,,,,010,001,2023-11-12_14h31.39.111,untitled,2023.2.2,59.94158093535291,2023-11-12 14h31.57.479065 +0800,
2,condition_1/rightstar.PNG,right,,,,,0,6,6,13,,,,,,,,,86.26298279999992,,,,,,,,,,,,,,,,,,,,,,,,,,,,,,,,,,,,,,,,,,,,,86.20739240000012,86.26298279999992,86.72160489999987,86.72164040000007,87.22084610000002,87.6333024999999,87.50518569999986,87.50521119999985,88.82317039999998,88.82317039999998,89.25666360000014,right,1,0.42203310000013516,None,,,,,,,,,,,,,,,,,,,,,,,,,,,,,,,,,,,,,,,,,,,,,,,,,,,,,,,,,,,,,,,010,001,2023-11-12_14h31.39.111,untitled,2023.2.2,59.94158093535291,2023-11-12 14h31.57.479065 +0800,
8,condition_1/rightstar.PNG,space,,,,,0,7,7,6,,,,,,,,,89.32117240000025,,,,,,,,,,,,,,,,,,,,,,,,,,,,,,,,,,,,,,,,,,,,,89.25831550000021,89.32117240000025,89.77182309999989,89.77184859999988,90.2710747000001,90.67603390000022,90.55501099999992,90.55503640000006,91.87316349999992,91.87316349999992,92.67326120000007,right,0,0.7945181000000048,None,92.72814749999998,,,,,,,,,,,,,,,,,,,,,,,,,,,,,,,,,,,,,,,,,,,,,,,,,,,,,,,,,,,,,,010,001,2023-11-12_14h31.39.111,untitled,2023.2.2,59.94158093535291,2023-11-12 14h31.57.479065 +0800,
1,condition_1/rightstar.PNG,right,,,,,0,8,8,12,,,,,,,,,92.72814749999998,,,,,,,,,,,,,,,,,,,,,,,,,,,,,,,,,,,,,,,,,,,,,92.67424819999997,92.72814749999998,93.1882598000002,93.18829570000025,93.6878001,94.09419639999987,93.97169750000012,93.97173329999987,95.28960469999993,95.28960469999993,95.88959579999982,right,1,0.5848452000000179,None,,,,,,,,,,,,,,,,,,,,,,,,,,,,,,,,,,,,,,,,,,,,,,,,,,,,,,,,,,,,,,,010,001,2023-11-12_14h31.39.111,untitled,2023.2.2,59.94158093535291,2023-11-12 14h31.57.479065 +0800,
9,condition_1/leftstar.PNG,space,,,,,0,9,9,3,,,,,,,,,95.94304199999988,,,,,,,,,,,,,,,,,,,,,,,,,,,,,,,,,,,,,,,,,,,,,95.89064240000016,95.94304199999988,96.40479940000023,96.4048416999999,96.90379100000018,97.32406429999992,97.18877370000018,97.18880549999994,98.5062269,98.5062269,99.40553200000022,left,0,0.8856814000000668,None,99.32070770000018,,,,,,,,,,,,,,,,,,,,,,,,,,,,,,,,,,,,,,,,,,,,,,,,,,,,,,,,,,,,,,010,001,2023-11-12_14h31.39.111,untitled,2023.2.2,59.94158093535291,2023-11-12 14h31.57.479065 +0800,
9,condition_1/blank.PNG,space,,,,,0,10,10,11,,,,,,,,,99.46302019999985,,,,,,,,,,,,,,,,,,,,,,,,,,,,,,,,,,,,,,,,,,,,,99.40659779999987,99.46302019999985,99.92162529999996,99.92166189999989,100.42070009999998,100.90468490000012,100.70528109999987,100.70531579999988,102.02238380000017,102.02238380000017,106.03883850000011,space,1,4.001066400000127,None,102.83735780000006,,,,,,,,,,,,,,,,,,,,,,,,,,,,,,,,,,,,,,,,,,,,,,,,,,,,,,,,,,,,,,010,001,2023-11-12_14h31.39.111,untitled,2023.2.2,59.94158093535291,2023-11-12 14h31.57.479065 +0800,
9,condition_1/leftstar.PNG,space,,,,,0,11,11,24,,,,,,,,,106.09663249999994,,,,,,,,,,,,,,,,,,,,,,,,,,,,,,,,,,,,,,,,,,,,,106.03990900000008,106.09663249999994,106.5549473000001,106.55497210000021,107.05445090000012,107.59700199999997,107.33836580000025,107.33839200000011,108.65686950000008,108.65686950000008,109.75558460000002,space,1,1.0903194000002259,None,109.4709656,,,,,,,,,,,,,,,,,,,,,,,,,,,,,,,,,,,,,,,,,,,,,,,,,,,,,,,,,,,,,,010,001,2023-11-12_14h31.39.111,untitled,2023.2.2,59.94158093535291,2023-11-12 14h31.57.479065 +0800,
2,condition_1/leftstar.PNG,left,,,,,0,12,12,22,,,,,,,,,109.82607850000022,,,,,,,,,,,,,,,,,,,,,,,,,,,,,,,,,,,,,,,,,,,,,109.75670660000014,109.82607850000022,110.27170530000012,110.27174640000021,110.77098519999981,111.2063693,111.05507480000006,111.05510090000007,112.37296939999987,112.37296939999987,112.78959380000015,left,1,0.40391779999981736,None,,,,,,,,,,,,,,,,,,,,,,,,,,,,,,,,,,,,,,,,,,,,,,,,,,,,,,,,,,,,,,,010,001,2023-11-12_14h31.39.111,untitled,2023.2.2,59.94158093535291,2023-11-12 14h31.57.479065 +0800,
2,condition_1/leftstar.PNG,left,,,,,0,13,13,17,,,,,,,,,112.84457659999998,,,,,,,,,,,,,,,,,,,,,,,,,,,,,,,,,,,,,,,,,,,,,112.79064349999999,112.84457659999998,113.30502750000005,113.30505260000018,113.8041303,114.2132474,114.08850970000003,114.08853619999991,115.40648099999999,115.40648099999999,115.7729631000002,left,1,0.35161610000022847,None,,,,,,,,,,,,,,,,,,,,,,,,,,,,,,,,,,,,,,,,,,,,,,,,,,,,,,,,,,,,,,,010,001,2023-11-12_14h31.39.111,untitled,2023.2.2,59.94158093535291,2023-11-12 14h31.57.479065 +0800,
9,condition_1/rightstar.PNG,space,,,,,0,14,14,7,,,,,,,,,115.83126270000002,,,,,,,,,,,,,,,,,,,,,,,,,,,,,,,,,,,,,,,,,,,,,115.77414580000004,115.83126270000002,116.28858630000013,116.28861099999995,116.7876553000001,117.20058299999982,117.07180870000002,117.07184189999998,118.39005180000004,118.39005180000004,119.42252460000009,right,0,1.0208935000000565,None,119.20403540000007,,,,,,,,,,,,,,,,,,,,,,,,,,,,,,,,,,,,,,,,,,,,,,,,,,,,,,,,,,,,,,010,001,2023-11-12_14h31.39.111,untitled,2023.2.2,59.94158093535291,2023-11-12 14h31.57.479065 +0800,
8,condition_1/leftstar.PNG,space,,,,,0,15,15,2,,,,,,,,,119.48883010000009,,,,,,,,,,,,,,,,,,,,,,,,,,,,,,,,,,,,,,,,,,,,,119.42350149999993,119.48883010000009,119.93827330000022,119.93829730000016,120.43749089999983,120.8885951000002,120.7217740000001,120.72179869999991,122.03943570000001,122.03943570000001,122.42379170000004,left,0,0.3788758000000598,None,,,,,,,,,,,,,,,,,,,,,,,,,,,,,,,,,,,,,,,,,,,,,,,,,,,,,,,,,,,,,,,010,001,2023-11-12_14h31.39.111,untitled,2023.2.2,59.94158093535291,2023-11-12 14h31.57.479065 +0800,
1,condition_1/leftstar.PNG,left,,,,,0,16,16,0,,,,,,,,,122.47998020000023,,,,,,,,,,,,,,,,,,,,,,,,,,,,,,,,,,,,,,,,,,,,,122.42490180000004,122.47998020000023,122.93791390000024,122.93792789999998,123.43737460000011,123.84371390000024,123.72219730000006,123.72222390000024,125.03955459999997,125.03955459999997,125.40638500000023,left,1,0.36433690000012575,None,,,,,,,,,,,,,,,,,,,,,,,,,,,,,,,,,,,,,,,,,,,,,,,,,,,,,,,,,,,,,,,010,001,2023-11-12_14h31.39.111,untitled,2023.2.2,59.94158093535291,2023-11-12 14h31.57.479065 +0800,
9,condition_1/rightstar.PNG,space,,,,,0,17,17,15,,,,,,,,,125.46335880000015,,,,,,,,,,,,,,,,,,,,,,,,,,,,,,,,,,,,,,,,,,,,,125.40745319999996,125.46335880000015,125.92135210000015,125.92141730000003,126.42085050000014,126.82461190000004,126.70493660000011,126.7049704000001,128.0232030000002,128.0232030000002,128.4567135000002,right,0,0.4187713999999687,None,,,,,,,,,,,,,,,,,,,,,,,,,,,,,,,,,,,,,,,,,,,,,,,,,,,,,,,,,,,,,,,010,001,2023-11-12_14h31.39.111,untitled,2023.2.2,59.94158093535291,2023-11-12 14h31.57.479065 +0800,
8,condition_1/rightstar.PNG,space,,,,,0,18,18,23,,,,,,,,,128.51280320000023,,,,,,,,,,,,,,,,,,,,,,,,,,,,,,,,,,,,,,,,,,,,,128.45779660000017,128.51280320000023,128.97155049999992,128.97159659999988,129.47087509999983,129.87982779999993,129.7552083999999,129.75523520000024,131.07295310000018,131.07295310000018,132.2224928999999,right,0,1.1324675999999272,None,131.8873622000001,,,,,,,,,,,,,,,,,,,,,,,,,,,,,,,,,,,,,,,,,,,,,,,,,,,,,,,,,,,,,,010,001,2023-11-12_14h31.39.111,untitled,2023.2.2,59.94158093535291,2023-11-12 14h31.57.479065 +0800,
1,condition_1/blank.PNG,space,,,,,0,19,19,8,,,,,,,,,132.27707370000007,,,,,,,,,,,,,,,,,,,,,,,,,,,,,,,,,,,,,,,,,,,,,132.22358799999984,132.27707370000007,132.73832949999996,132.7383592000001,133.23752280000008,133.65308559999994,133.5221203000001,133.5221529999999,134.83894670000018,134.83894670000018,137.97240629999988,space,1,3.1268685000000005,None,135.65419999999995,,,,,,,,,,,,,,,,,,,,,,,,,,,,,,,,,,,,,,,,,,,,,,,,,,,,,,,,,,,,,,010,001,2023-11-12_14h31.39.111,untitled,2023.2.2,59.94158093535291,2023-11-12 14h31.57.479065 +0800,
8,condition_1/leftstar.PNG,space,,,,,0,20,20,18,,,,,,,,,138.02901490000022,,,,,,,,,,,,,,,,,,,,,,,,,,,,,,,,,,,,,,,,,,,,,137.97350899999992,138.02901490000022,138.48821380000027,138.48825579999993,138.98749020000014,139.53784480000013,139.27171080000016,139.27173700000003,140.59032630000002,140.59032630000002,141.12395939999988,space,1,0.5188150999997561,None,,,,,,,,,,,,,,,,,,,,,,,,,,,,,,,,,,,,,,,,,,,,,,,,,,,,,,,,,,,,,,,010,001,2023-11-12_14h31.39.111,untitled,2023.2.2,59.94158093535291,2023-11-12 14h31.57.479065 +0800,
2,condition_1/blank.PNG,space,,,,,0,21,21,9,,,,,,,,,141.19130440000026,,,,,,,,,,,,,,,,,,,,,,,,,,,,,,,,,,,,,,,,,,,,,141.1246067000002,141.19130440000026,141.6382496000001,141.6382733999999,142.13755989999981,142.51532839999982,142.4216203000001,142.4216464000001,143.73849789999986,143.73849789999986,146.67269639999995,space,1,2.9309078999999656,None,144.53737390000015,,,,,,,,,,,,,,,,,,,,,,,,,,,,,,,,,,,,,,,,,,,,,,,,,,,,,,,,,,,,,,010,001,2023-11-12_14h31.39.111,untitled,2023.2.2,59.94158093535291,2023-11-12 14h31.57.479065 +0800,
8,condition_1/blank.PNG,space,,,,,0,22,22,10,,,,,,,,,146.78096779999987,,,,,,,,,,,,,,,,,,,,,,,,,,,,,,,,,,,,,,,,,,,,,146.67381620000015,146.78096779999987,147.18832800000018,147.18835290000015,147.68736739999986,148.02375840000013,147.97206610000012,147.97209509999993,149.2886469,149.2886469,150.07302870000012,space,1,0.7821658999996544,None,150.13486479999983,,,,,,,,,,,,,,,,,,,,,,,,,,,,,,,,,,,,,,,,,,,,,,,,,,,,,,,,,,,,,,010,001,2023-11-12_14h31.39.111,untitled,2023.2.2,59.94158093535291,2023-11-12 14h31.57.479065 +0800,
2,condition_1/blank.PNG,space,,,,,0,23,23,20,,,,,,,,,150.13486479999983,,,,,,,,,,,,,,,,,,,,,,,,,,,,,,,,,,,,,,,,,,,,,150.07411219999995,150.13486479999983,150.58849210000017,150.5885389,151.08755960000008,151.41335930000014,151.3716488,151.37167450000015,152.68898369999988,152.68898369999988,154.30515969999988,space,1,1.6032355000002099,None,153.48727259999987,,,,,,,,,,,,,,,,,,,,,,,,,,,,,,,,,,,,,,,,,,,,,,,,,,,,,,,,,,,,,,010,001,2023-11-12_14h31.39.111,untitled,2023.2.2,59.94158093535291,2023-11-12 14h31.57.479065 +0800,
1,condition_1/rightstar.PNG,right,,,,,0,24,24,4,,,,,,,,,154.36243590000004,,,,,,,,,,,,,,,,,,,,,,,,,,,,,,,,,,,,,,,,,,,,,154.3057171999999,154.36243590000004,154.82142729999987,154.82145050000008,155.32065060000014,155.88012040000012,155.60506029999988,155.60508609999988,156.92314380000016,156.92314380000016,158.00588640000024,right,1,1.0747722000000977,None,157.7372518000002,,,,,,,,,,,,,,,,,,,,,,,,,,,,,,,,,,,,,,,,,,,,,,,,,,,,,,,,,,,,,,010,001,2023-11-12_14h31.39.111,untitled,2023.2.2,59.94158093535291,2023-11-12 14h31.57.479065 +0800,
2,condition_1/blank.PNG,space,,,,,1,0,25,20,,,,,,,,,158.0602116,,,,,,,,,,,,,,,,,,,,,,,,,,,,,,,,,,,,,,,,,,,,,158.00697179999997,158.0602116,158.52159089999986,158.52161569999998,159.02094679999982,159.436197,159.3049992000001,159.30503339999996,160.6219612,160.6219612,161.29124279999996,space,1,0.6658402000002752,None,,,,,,,,,,,,,,,,,,,,,,,,,,,,,,,,,,,,,,,,,,,,,,,,,,,,,,,,,,,,,,,010,001,2023-11-12_14h31.39.111,untitled,2023.2.2,59.94158093535291,2023-11-12 14h31.57.479065 +0800,
8,condition_1/rightstar.PNG,space,,,,,1,1,26,6,,,,,,,,,161.35017449999987,,,,,,,,,,,,,,,,,,,,,,,,,,,,,,,,,,,,,,,,,,,,,161.29251290000002,161.35017449999987,161.80501189999995,161.80507080000007,162.30403460000025,162.82584850000012,162.58831390000023,162.58834019999995,163.90607240000008,163.90607240000008,165.17284699999982,space,1,1.2594574999998258,None,164.72084469999982,,,,,,,,,,,,,,,,,,,,,,,,,,,,,,,,,,,,,,,,,,,,,,,,,,,,,,,,,,,,,,010,001,2023-11-12_14h31.39.111,untitled,2023.2.2,59.94158093535291,2023-11-12 14h31.57.479065 +0800,
2,condition_1/blank.PNG,space,,,,,1,2,27,9,,,,,,,,,165.23477619999994,,,,,,,,,,,,,,,,,,,,,,,,,,,,,,,,,,,,,,,,,,,,,165.17410840000002,165.23477619999994,165.6882300000002,165.68825509999988,166.18742770000017,166.56315140000015,166.47142650000023,166.4714558999999,167.78868610000018,167.78868610000018,167.97337479999987,space,1,0.1768672999996852,None,,,,,,,,,,,,,,,,,,,,,,,,,,,,,,,,,,,,,,,,,,,,,,,,,,,,,,,,,,,,,,,010,001,2023-11-12_14h31.39.111,untitled,2023.2.2,59.94158093535291,2023-11-12 14h31.57.479065 +0800,
9,condition_1/leftstar.PNG,space,,,,,1,3,28,19,,,,,,,,,168.0346023000002,,,,,,,,,,,,,,,,,,,,,,,,,,,,,,,,,,,,,,,,,,,,,167.97442790000014,168.0346023000002,168.48836970000002,168.48839439999983,168.9874659000002,169.49919869999985,169.2721286000001,169.2721643,170.58961050000016,170.58961050000016,171.63961169999993,space,1,1.0368222000001879,None,171.40399290000005,,,,,,,,,,,,,,,,,,,,,,,,,,,,,,,,,,,,,,,,,,,,,,,,,,,,,,,,,,,,,,010,001,2023-11-12_14h31.39.111,untitled,2023.2.2,59.94158093535291,2023-11-12 14h31.57.479065 +0800,
1,condition_1/leftstar.PNG,left,,,,,1,4,29,16,,,,,,,,,171.71618500000022,,,,,,,,,,,,,,,,,,,,,,,,,,,,,,,,,,,,,,,,,,,,,171.64090050000004,171.71618500000022,172.15503420000005,172.1550643999999,172.6541425999999,173.06256170000006,172.9386459000002,172.93867339999997,174.25619129999995,174.25619129999995,174.874229,space,0,0.6084158999997271,None,,,,,,,,,,,,,,,,,,,,,,,,,,,,,,,,,,,,,,,,,,,,,,,,,,,,,,,,,,,,,,,010,001,2023-11-12_14h31.39.111,untitled,2023.2.2,59.94158093535291,2023-11-12 14h31.57.479065 +0800,
9,condition_1/blank.PNG,space,,,,,1,5,30,11,,,,,,,,,174.93227230000002,,,,,,,,,,,,,,,,,,,,,,,,,,,,,,,,,,,,,,,,,,,,,174.87528040000007,174.93227230000002,175.38806269999986,175.3880862000001,175.8872968999999,176.26462989999982,176.17188309999983,176.17190889999983,177.48855559999993,177.48855559999993,178.18938449999996,space,1,0.691096899999593,None,,,,,,,,,,,,,,,,,,,,,,,,,,,,,,,,,,,,,,,,,,,,,,,,,,,,,,,,,,,,,,,010,001,2023-11-12_14h31.39.111,untitled,2023.2.2,59.94158093535291,2023-11-12 14h31.57.479065 +0800,
2,condition_1/leftstar.PNG,left,,,,,1,6,31,17,,,,,,,,,178.26867189999984,,,,,,,,,,,,,,,,,,,,,,,,,,,,,,,,,,,,,,,,,,,,,178.19059079999988,178.26867189999984,178.70457429999988,178.70459089999986,179.20396230000006,179.76187560000017,179.48883520000027,179.48887079999986,180.80599549999988,180.80599549999988,181.23951940000006,left,1,0.42994690000023184,None,,,,,,,,,,,,,,,,,,,,,,,,,,,,,,,,,,,,,,,,,,,,,,,,,,,,,,,,,,,,,,,010,001,2023-11-12_14h31.39.111,untitled,2023.2.2,59.94158093535291,2023-11-12 14h31.57.479065 +0800,
1,condition_1/rightstar.PNG,right,,,,,1,7,32,12,,,,,,,,,181.30841240000018,,,,,,,,,,,,,,,,,,,,,,,,,,,,,,,,,,,,,,,,,,,,,181.2407919000002,181.30841240000018,181.75509479999982,181.7551183999999,182.2544665999999,182.66388730000017,182.5384508000002,182.53847180000002,183.85642700000017,183.85642700000017,184.37307090000013,right,1,0.5089656000000105,None,,,,,,,,,,,,,,,,,,,,,,,,,,,,,,,,,,,,,,,,,,,,,,,,,,,,,,,,,,,,,,,010,001,2023-11-12_14h31.39.111,untitled,2023.2.2,59.94158093535291,2023-11-12 14h31.57.479065 +0800,
1,condition_1/rightstar.PNG,right,,,,,1,8,33,21,,,,,,,,,184.42715679999992,,,,,,,,,,,,,,,,,,,,,,,,,,,,,,,,,,,,,,,,,,,,,184.37399319999986,184.42715679999992,184.88835199999994,184.88839450000023,185.38769349999984,185.81981369999994,185.6717649000002,185.67178490000015,186.98952450000024,186.98952450000024,187.43957869999986,right,1,0.4337391999997635,None,,,,,,,,,,,,,,,,,,,,,,,,,,,,,,,,,,,,,,,,,,,,,,,,,,,,,,,,,,,,,,,010,001,2023-11-12_14h31.39.111,untitled,2023.2.2,59.94158093535291,2023-11-12 14h31.57.479065 +0800,
1,condition_1/rightstar.PNG,right,,,,,1,9,34,4,,,,,,,,,187.50165779999998,,,,,,,,,,,,,,,,,,,,,,,,,,,,,,,,,,,,,,,,,,,,,187.4406597000002,187.50165779999998,187.95465120000017,187.95467610000014,188.45410530000026,188.86981930000002,188.73833999999988,188.73836600000004,190.05639150000025,190.05639150000025,190.39000690000012,right,1,0.3286527999998725,None,,,,,,,,,,,,,,,,,,,,,,,,,,,,,,,,,,,,,,,,,,,,,,,,,,,,,,,,,,,,,,,010,001,2023-11-12_14h31.39.111,untitled,2023.2.2,59.94158093535291,2023-11-12 14h31.57.479065 +0800,
8,condition_1/rightstar.PNG,space,,,,,1,10,35,23,,,,,,,,,190.4670627999999,,,,,,,,,,,,,,,,,,,,,,,,,,,,,,,,,,,,,,,,,,,,,190.3911796000002,190.4670627999999,190.9053530000001,190.90537840000025,191.40432229999988,191.8850894000002,191.68850410000005,191.68853249999984,193.00629179999987,193.00629179999987,193.2728172000002,space,1,0.2623705000000882,None,,,,,,,,,,,,,,,,,,,,,,,,,,,,,,,,,,,,,,,,,,,,,,,,,,,,,,,,,,,,,,,010,001,2023-11-12_14h31.39.111,untitled,2023.2.2,59.94158093535291,2023-11-12 14h31.57.479065 +0800,
9,condition_1/leftstar.PNG,space,,,,,1,11,36,3,,,,,,,,,193.32859129999997,,,,,,,,,,,,,,,,,,,,,,,,,,,,,,,,,,,,,,,,,,,,,193.27389219999986,193.32859129999997,193.7880172,193.7880414000001,194.28730330000008,194.6941366000001,194.57176879999997,194.57180240000025,195.88956710000002,195.88956710000002,196.28921739999987,space,1,0.3827734999999848,None,,,,,,,,,,,,,,,,,,,,,,,,,,,,,,,,,,,,,,,,,,,,,,,,,,,,,,,,,,,,,,,010,001,2023-11-12_14h31.39.111,untitled,2023.2.2,59.94158093535291,2023-11-12 14h31.57.479065 +0800,
8,condition_1/leftstar.PNG,space,,,,,1,12,37,2,,,,,,,,,196.34440589999986,,,,,,,,,,,,,,,,,,,,,,,,,,,,,,,,,,,,,,,,,,,,,196.29031750000013,196.34440589999986,196.80492920000006,196.8049716999999,197.3040661,197.7074050000001,197.5882203000001,197.5882474,198.90598850000015,198.90598850000015,199.30620950000002,space,1,0.39407500000015716,None,,,,,,,,,,,,,,,,,,,,,,,,,,,,,,,,,,,,,,,,,,,,,,,,,,,,,,,,,,,,,,,010,001,2023-11-12_14h31.39.111,untitled,2023.2.2,59.94158093535291,2023-11-12 14h31.57.479065 +0800,
9,condition_1/leftstar.PNG,space,,,,,1,13,38,24,,,,,,,,,199.36954229999992,,,,,,,,,,,,,,,,,,,,,,,,,,,,,,,,,,,,,,,,,,,,,199.30735529999993,199.36954229999992,199.8215568999999,199.82161450000012,200.3207854000002,200.72545390000005,200.60505060000014,200.60507629999984,201.92289010000013,201.92289010000013,202.23930550000023,space,1,0.3136782999999923,None,,,,,,,,,,,,,,,,,,,,,,,,,,,,,,,,,,,,,,,,,,,,,,,,,,,,,,,,,,,,,,,010,001,2023-11-12_14h31.39.111,untitled,2023.2.2,59.94158093535291,2023-11-12 14h31.57.479065 +0800,
1,condition_1/blank.PNG,space,,,,,1,14,39,8,,,,,,,,,202.29790140000023,,,,,,,,,,,,,,,,,,,,,,,,,,,,,,,,,,,,,,,,,,,,,202.2403677000002,202.29790140000023,202.75482640000018,202.7548594,203.2540484000001,203.6782106999999,203.53816719999986,203.53819449999992,204.85527880000018,204.85527880000018,205.43971839999995,space,1,0.5758128000002216,None,,,,,,,,,,,,,,,,,,,,,,,,,,,,,,,,,,,,,,,,,,,,,,,,,,,,,,,,,,,,,,,010,001,2023-11-12_14h31.39.111,untitled,2023.2.2,59.94158093535291,2023-11-12 14h31.57.479065 +0800,
2,condition_1/leftstar.PNG,left,,,,,1,15,40,1,,,,,,,,,205.49873720000005,,,,,,,,,,,,,,,,,,,,,,,,,,,,,,,,,,,,,,,,,,,,,205.44084079999993,205.49873720000005,205.95467069999995,205.9546931,206.45404300000018,206.97936590000018,206.73839450000014,206.73842049999985,208.05693010000005,208.05693010000005,208.10683870000003,space,0,0.04056460000037987,None,,,,,,,,,,,,,,,,,,,,,,,,,,,,,,,,,,,,,,,,,,,,,,,,,,,,,,,,,,,,,,,010,001,2023-11-12_14h31.39.111,untitled,2023.2.2,59.94158093535291,2023-11-12 14h31.57.479065 +0800,
8,condition_1/rightstar.PNG,space,,,,,1,16,41,14,,,,,,,,,208.1635867,,,,,,,,,,,,,,,,,,,,,,,,,,,,,,,,,,,,,,,,,,,,,208.1079562,208.1635867,208.62155540000003,208.62159810000003,209.12086369999997,209.52907989999994,209.4054575,209.40551159999995,210.72264640000003,210.72264640000003,211.2561638000002,right,0,0.5271097999998346,None,,,,,,,,,,,,,,,,,,,,,,,,,,,,,,,,,,,,,,,,,,,,,,,,,,,,,,,,,,,,,,,010,001,2023-11-12_14h31.39.111,untitled,2023.2.2,59.94158093535291,2023-11-12 14h31.57.479065 +0800,
8,condition_1/leftstar.PNG,space,,,,,1,17,42,18,,,,,,,,,211.31307300000026,,,,,,,,,,,,,,,,,,,,,,,,,,,,,,,,,,,,,,,,,,,,,211.25727749999987,211.31307300000026,211.77123859999983,211.77126210000006,212.27078380000012,212.69138639999983,212.5550360000002,212.55506250000008,213.8732484000002,213.8732484000002,214.5244573,space,1,0.6468709000000672,None,,,,,,,,,,,,,,,,,,,,,,,,,,,,,,,,,,,,,,,,,,,,,,,,,,,,,,,,,,,,,,,010,001,2023-11-12_14h31.39.111,untitled,2023.2.2,59.94158093535291,2023-11-12 14h31.57.479065 +0800,
8,condition_1/blank.PNG,space,,,,,1,18,43,10,,,,,,,,,214.5809352000001,,,,,,,,,,,,,,,,,,,,,,,,,,,,,,,,,,,,,,,,,,,,,214.52558820000013,214.5809352000001,215.03891599999997,215.03898489999983,215.53735989999996,215.912237,215.82157959999995,215.82162180000023,217.13853999999992,217.13853999999992,218.2562726000001,space,1,1.1129871000002822,None,217.93731209999987,,,,,,,,,,,,,,,,,,,,,,,,,,,,,,,,,,,,,,,,,,,,,,,,,,,,,,,,,,,,,,010,001,2023-11-12_14h31.39.111,untitled,2023.2.2,59.94158093535291,2023-11-12 14h31.57.479065 +0800,
2,condition_1/rightstar.PNG,right,,,,,1,19,44,13,,,,,,,,,218.31797730000017,,,,,,,,,,,,,,,,,,,,,,,,,,,,,,,,,,,,,,,,,,,,,218.25797060000014,218.31797730000017,218.77157709999983,218.77161830000023,219.2708931000002,219.79812010000023,219.55520260000003,219.55526120000013,220.8728019,220.8728019,221.42286390000027,right,1,0.5426541000001635,None,,,,,,,,,,,,,,,,,,,,,,,,,,,,,,,,,,,,,,,,,,,,,,,,,,,,,,,,,,,,,,,010,001,2023-11-12_14h31.39.111,untitled,2023.2.2,59.94158093535291,2023-11-12 14h31.57.479065 +0800,
2,condition_1/rightstar.PNG,left,,,,,1,20,45,5,,,,,,,,,221.48417580000023,,,,,,,,,,,,,,,,,,,,,,,,,,,,,,,,,,,,,,,,,,,,,221.42397870000013,221.48417580000023,221.9383498000002,221.9383769000001,222.43767919999982,222.85959630000025,222.7219666000001,222.72199360000013,224.0396079000002,224.0396079000002,224.65651509999998,right,0,0.6031009999996968,None,,,,,,,,,,,,,,,,,,,,,,,,,,,,,,,,,,,,,,,,,,,,,,,,,,,,,,,,,,,,,,,010,001,2023-11-12_14h31.39.111,untitled,2023.2.2,59.94158093535291,2023-11-12 14h31.57.479065 +0800,
9,condition_1/rightstar.PNG,space,,,,,1,21,46,7,,,,,,,,,224.7125735999998,,,,,,,,,,,,,,,,,,,,,,,,,,,,,,,,,,,,,,,,,,,,,224.65761710000015,224.7125735999998,225.17174299999988,225.1717662000001,225.6704961999999,226.07368069999984,225.9549932,225.95501939999986,227.27274750000015,227.27274750000015,228.10541580000017,space,1,0.82654040000034,None,228.08738330000006,,,,,,,,,,,,,,,,,,,,,,,,,,,,,,,,,,,,,,,,,,,,,,,,,,,,,,,,,,,,,,010,001,2023-11-12_14h31.39.111,untitled,2023.2.2,59.94158093535291,2023-11-12 14h31.57.479065 +0800,
9,condition_1/rightstar.PNG,space,,,,,1,22,47,15,,,,,,,,,228.16006310000012,,,,,,,,,,,,,,,,,,,,,,,,,,,,,,,,,,,,,,,,,,,,,228.10659769999984,228.16006310000012,228.6213885000002,228.6214129,229.12066170000026,229.52572199999986,229.40535390000014,229.4053804,230.7227630000002,230.7227630000002,232.95542810000006,space,1,2.228304200000366,None,231.5374529999999,,,,,,,,,,,,,,,,,,,,,,,,,,,,,,,,,,,,,,,,,,,,,,,,,,,,,,,,,,,,,,010,001,2023-11-12_14h31.39.111,untitled,2023.2.2,59.94158093535291,2023-11-12 14h31.57.479065 +0800,
1,condition_1/leftstar.PNG,left,,,,,1,23,48,0,,,,,,,,,233.01642399999992,,,,,,,,,,,,,,,,,,,,,,,,,,,,,,,,,,,,,,,,,,,,,232.9564574000001,233.01642399999992,233.4716128,233.47165180000002,233.97083840000005,234.36918620000006,234.2549893999999,234.25501510000004,235.573085,235.573085,235.9559322,left,1,0.3728268999998363,None,,,,,,,,,,,,,,,,,,,,,,,,,,,,,,,,,,,,,,,,,,,,,,,,,,,,,,,,,,,,,,,010,001,2023-11-12_14h31.39.111,untitled,2023.2.2,59.94158093535291,2023-11-12 14h31.57.479065 +0800,
2,condition_1/leftstar.PNG,left,,,,,1,24,49,22,,,,,,,,,236.00698680000005,,,,,,,,,,,,,,,,,,,,,,,,,,,,,,,,,,,,,,,,,,,,,235.95667809999986,236.00698680000005,236.47152749999987,236.47157960000004,236.97083569999995,237.37045560000024,237.25522709999996,237.2552525000001,238.57282859999987,238.57282859999987,238.98973710000018,left,1,0.4108498000000509,None,,,,,,,,,,,,,,,,,,,,,,,,,,,,,,,,,,,,,,,,,,,,,,,,,,,,,,,,,,,,,,,010,001,2023-11-12_14h31.39.111,untitled,2023.2.2,59.94158093535291,2023-11-12 14h31.57.479065 +0800,
,,,,,,,,,,,,,,,,,,,,,,,,,,,,,,,,,,,,,,,,,,,,,,,,,,,,,,,,,,,,,,,,,,,,,,,,,,,,,,,,238.99056999999993,239.00394610000012,239.00394610000012,244.4563366000002,space,5.449389500000052,None,,,,,,,,,,,,,,,,,,,,,,,,,,,,,,,,,,,,,,,,,,,,,,,,,,,,,,,010,001,2023-11-12_14h31.39.111,untitled,2023.2.2,59.94158093535291,2023-11-12 14h31.57.479065 +0800,
,,,,,,,,,,,,,,,,,,,,,,,,,,,,,,,,,,,,,,,,,,,,,,,,,,,,,,,,,,,,,,,,,,,,,,,,,,,,,,,,,,,,,,,244.45638409999992,244.47061110000004,244.47061110000004,260.27150370000027,space,15.787284099999852,None,,,,,,,,,,,,,,,,,,,,,,,,,,,,,,,,,,,,,,,,,,,,,,,,010,001,2023-11-12_14h31.39.111,untitled,2023.2.2,59.94158093535291,2023-11-12 14h31.57.479065 +0800,
1,test2/blank.PNG,space,,,,,,,,,0,0,0,2,,,,,260.4785474,,,,,,,,,,,,,,,,,,,,,,,,,,,,,,,,,,,,,,,,,,,,,,,,,,,,,,,,,,,,,,,,,,,,,,,,,,,260.2931113999998,260.4785474,260.78787420000026,260.7879017,261.27066909999985,261.6902057000002,261.55498769999986,261.55501540000023,262.87277300000005,262.87277300000005,263.68716810000024,268.07227220000004,space,5.193844899999931,None,,,,,,,,,,,,,,,,,,,,,,,,,,,,,,,,,010,001,2023-11-12_14h31.39.111,untitled,2023.2.2,59.94158093535291,2023-11-12 14h31.57.479065 +0800,
8,test2/leftstar.PNG,left,,,,,,,,,0,1,1,5,,,,,268.1727928999999,,,,,,,,,,,,,,,,,,,,,,,,,,,,,,,,,,,,,,,,,,,,,,,,,,,,,,,,,,,,,,,,,,,,,,,,,,,268.07371349999994,268.1727928999999,268.58798430000024,268.58802300000025,269.0875672000002,269.70357920000015,269.37195950000023,269.3720075000001,270.6896793000001,270.6896793000001,,271.08979499999987,left,0.3973995000001196,None,,,,,,,,,,,,,,,,,,,,,,,,,,,,,,,,,010,001,2023-11-12_14h31.39.111,untitled,2023.2.2,59.94158093535291,2023-11-12 14h31.57.479065 +0800,
1,test2/leftstar.PNG,space,,,,,,,,,0,2,2,0,,,,,271.14537210000026,,,,,,,,,,,,,,,,,,,,,,,,,,,,,,,,,,,,,,,,,,,,,,,,,,,,,,,,,,,,,,,,,,,,,,,,,,,271.0907473000002,271.14537210000026,271.60437249999995,271.6043949,272.10393460000023,272.51183549999996,272.3886738000001,272.3887103000002,273.70595490000005,273.70595490000005,274.5209639999998,275.60545460000003,space,1.8844974000003276,None,,,,,,,,,,,,,,,,,,,,,,,,,,,,,,,,,010,001,2023-11-12_14h31.39.111,untitled,2023.2.2,59.94158093535291,2023-11-12 14h31.57.479065 +0800,
2,test2/leftstar.PNG,space,,,,,,,,,0,3,3,4,,,,,275.6638025000002,,,,,,,,,,,,,,,,,,,,,,,,,,,,,,,,,,,,,,,,,,,,,,,,,,,,,,,,,,,,,,,,,,,,,,,,,,,275.6063696000001,275.6638025000002,276.1209690999999,276.1209895000002,276.6207392000001,277.02175369999986,276.9043584000001,276.90437109999993,278.223152,278.223152,,278.8066079,space,0.5723630000002231,None,,,,,,,,,,,,,,,,,,,,,,,,,,,,,,,,,010,001,2023-11-12_14h31.39.111,untitled,2023.2.2,59.94158093535291,2023-11-12 14h31.57.479065 +0800,
8,test2/rightstar.PNG,right,,,,,,,,,0,4,4,1,,,,,278.86239190000015,,,,,,,,,,,,,,,,,,,,,,,,,,,,,,,,,,,,,,,,,,,,,,,,,,,,,,,,,,,,,,,,,,,,,,,,,,,278.8075368,278.86239190000015,279.3214045999998,279.32143099999985,279.8207032,280.28019619999986,280.10563630000024,280.1056745000001,281.4230106,281.4230106,,281.8058070000002,right,0.36669369999981427,None,,,,,,,,,,,,,,,,,,,,,,,,,,,,,,,,,010,001,2023-11-12_14h31.39.111,untitled,2023.2.2,59.94158093535291,2023-11-12 14h31.57.479065 +0800,
9,test2/rightstar.PNG,right,,,,,,,,,0,5,5,3,,,,,281.8626755,,,,,,,,,,,,,,,,,,,,,,,,,,,,,,,,,,,,,,,,,,,,,,,,,,,,,,,,,,,,,,,,,,,,,,,,,,,281.8066770999999,281.8626755,282.32124550000026,282.32127149999997,282.82061509999994,283.23049709999987,283.10557289999997,283.1056039,284.4228186999999,284.4228186999999,,285.00644650000004,right,0.5734843000000183,None,,,,,,,,,,,,,,,,,,,,,,,,,,,,,,,,,010,001,2023-11-12_14h31.39.111,untitled,2023.2.2,59.94158093535291,2023-11-12 14h31.57.479065 +0800,
,,,,,,,,,,,,,,,,,,,,,,,,,,,,,,,,,,,,,,,,,,,,,,,,,,,,,,,,,,,,,,,,,,,,,,,,,,,,,,,,,,,,,,,,,,,,,,,,,,,,,,,,,,,,,285.0071195999999,285.02062560000013,285.02062560000013,286.0206954999999,289.03897340000003,space,4.01241089999985,None,,,,,,,,,,,,,,,,,,,,,,,,,010,001,2023-11-12_14h31.39.111,untitled,2023.2.2,59.94158093535291,2023-11-12 14h31.57.479065 +0800,
,,,,,,,,,,,,,,,,,,,,,,,,,,,,,,,,,,,,,,,,,,,,,,,,,,,,,,,,,,,,,,,,,,,,,,,,,,,,,,,,,,,,,,,,,,,,,,,,,,,,,,,,,,,,,,,,,,,,,289.03904599999987,289.05397200000016,289.05397200000016,290.0540105,292.5057689,space,3.436949399999776,None,,,,,,,,,,,,,,,,,010,001,2023-11-12_14h31.39.111,untitled,2023.2.2,59.94158093535291,2023-11-12 14h31.57.479065 +0800,
1,condition_2/rightstar.PNG,space,,,,,,,,,,,,,0,0,0,4,292.6446721000002,,,,,,,,,,,,,,,,,,,,,,,,,,,,,,,,,,,,,,,,,,,,,,,,,,,,,,,,,,,,,,,,,,,,,,,,,,,,,,,,,,,,,,,,,,,,,,,,,,,,,,,,,,292.52815880000026,292.6446721000002,293.0212136,293.02124000000003,293.52053879999994,294.1008385,293.80498510000007,293.80503309999995,295.13062579999996,295.13062579999996,295.8733612000001,space,1,0.7249893999996857,None,,010,001,2023-11-12_14h31.39.111,untitled,2023.2.2,59.94158093535291,2023-11-12 14h31.57.479065 +0800,
2,condition_2/blank.PNG,space,,,,,,,,,,,,,0,1,1,9,295.93299960000013,,,,,,,,,,,,,,,,,,,,,,,,,,,,,,,,,,,,,,,,,,,,,,,,,,,,,,,,,,,,,,,,,,,,,,,,,,,,,,,,,,,,,,,,,,,,,,,,,,,,,,,,,,295.8749035999999,295.93299960000013,296.3880899999999,296.38813789999995,296.8873773999999,297.3305359000001,297.1719054,297.1719409000002,298.4883923000002,298.4883923000002,299.03936440000007,space,1,0.5381628000000092,None,,010,001,2023-11-12_14h31.39.111,untitled,2023.2.2,59.94158093535291,2023-11-12 14h31.57.479065 +0800,
8,condition_2/blank.PNG,space,,,,,,,,,,,,,0,2,2,10,299.09663219999993,,,,,,,,,,,,,,,,,,,,,,,,,,,,,,,,,,,,,,,,,,,,,,,,,,,,,,,,,,,,,,,,,,,,,,,,,,,,,,,,,,,,,,,,,,,,,,,,,,,,,,,,,,299.04048109999985,299.09663219999993,299.55461419999983,299.55464280000024,300.05380939999986,300.3767991999998,300.3384738,300.33850250000023,301.65516000000025,301.65516000000025,303.9555905000002,space,1,2.2921519999999873,None,302.45400370000016,010,001,2023-11-12_14h31.39.111,untitled,2023.2.2,59.94158093535291,2023-11-12 14h31.57.479065 +0800,
9,condition_2/leftstar.PNG,left,,,,,,,,,,,,,0,3,3,3,304.0083628000002,,,,,,,,,,,,,,,,,,,,,,,,,,,,,,,,,,,,,,,,,,,,,,,,,,,,,,,,,,,,,,,,,,,,,,,,,,,,,,,,,,,,,,,,,,,,,,,,,,,,,,,,,,303.95664850000003,304.0083628000002,304.4718346999998,304.4718625999999,304.9706344000001,305.6493065999998,305.2545024000001,305.25452270000005,306.5727369000001,306.5727369000001,306.73961210000016,space,0,0.16190439999991213,None,,010,001,2023-11-12_14h31.39.111,untitled,2023.2.2,59.94158093535291,2023-11-12 14h31.57.479065 +0800,
9,condition_2/leftstar.PNG,left,,,,,,,,,,,,,0,4,4,19,306.7945617999999,,,,,,,,,,,,,,,,,,,,,,,,,,,,,,,,,,,,,,,,,,,,,,,,,,,,,,,,,,,,,,,,,,,,,,,,,,,,,,,,,,,,,,,,,,,,,,,,,,,,,,,,,,306.7407318999999,306.7945617999999,307.25471100000004,307.2547383000001,307.75406650000014,308.15867230000003,308.03912649999984,308.0391674000002,309.3563554000002,309.3563554000002,309.9895317999999,space,0,0.6306870000003073,None,,010,001,2023-11-12_14h31.39.111,untitled,2023.2.2,59.94158093535291,2023-11-12 14h31.57.479065 +0800,
9,condition_2/rightstar.PNG,right,,,,,,,,,,,,,0,5,5,7,310.04119760000003,,,,,,,,,,,,,,,,,,,,,,,,,,,,,,,,,,,,,,,,,,,,,,,,,,,,,,,,,,,,,,,,,,,,,,,,,,,,,,,,,,,,,,,,,,,,,,,,,,,,,,,,,,309.99060199999985,310.04119760000003,310.50510540000005,310.5051389,311.00399500000003,311.4225873999999,311.28837620000013,311.2884041000002,312.6063101999998,312.6063101999998,313.20619399999987,space,0,0.5921572000002016,None,,010,001,2023-11-12_14h31.39.111,untitled,2023.2.2,59.94158093535291,2023-11-12 14h31.57.479065 +0800,
2,condition_2/rightstar.PNG,space,,,,,,,,,,,,,0,6,6,5,313.26151690000006,,,,,,,,,,,,,,,,,,,,,,,,,,,,,,,,,,,,,,,,,,,,,,,,,,,,,,,,,,,,,,,,,,,,,,,,,,,,,,,,,,,,,,,,,,,,,,,,,,,,,,,,,,313.2072527,313.26151690000006,313.7219057000002,313.7219344,314.2209815000001,314.6324015,314.50566720000006,314.5057190000002,315.8235113999999,315.8235113999999,316.30635340000026,right,0,0.4725996000001942,None,,010,001,2023-11-12_14h31.39.111,untitled,2023.2.2,59.94158093535291,2023-11-12 14h31.57.479065 +0800,
9,condition_2/rightstar.PNG,right,,,,,,,,,,,,,0,7,7,15,316.3656495,,,,,,,,,,,,,,,,,,,,,,,,,,,,,,,,,,,,,,,,,,,,,,,,,,,,,,,,,,,,,,,,,,,,,,,,,,,,,,,,,,,,,,,,,,,,,,,,,,,,,,,,,,316.3074955000002,316.3656495,316.82153470000003,316.82156339999983,317.3212118000001,317.7563562999999,317.60559749999993,317.60562919999984,318.92323669999996,318.92323669999996,320.7223349000001,space,0,1.785140599999977,None,319.7373560000001,010,001,2023-11-12_14h31.39.111,untitled,2023.2.2,59.94158093535291,2023-11-12 14h31.57.479065 +0800,
2,condition_2/leftstar.PNG,space,,,,,,,,,,,,,0,8,8,17,320.7737858999999,,,,,,,,,,,,,,,,,,,,,,,,,,,,,,,,,,,,,,,,,,,,,,,,,,,,,,,,,,,,,,,,,,,,,,,,,,,,,,,,,,,,,,,,,,,,,,,,,,,,,,,,,,320.72334060000003,320.7737858999999,321.2379495,321.2379741999998,321.7374404000002,322.2590088000002,322.0220631000002,322.0220935000002,323.3396247999999,323.3396247999999,324.3552829999999,space,1,0.9988220999998703,None,324.1540043,010,001,2023-11-12_14h31.39.111,untitled,2023.2.2,59.94158093535291,2023-11-12 14h31.57.479065 +0800,
1,condition_2/leftstar.PNG,space,,,,,,,,,,,,,0,9,9,22,324.41255409999985,,,,,,,,,,,,,,,,,,,,,,,,,,,,,,,,,,,,,,,,,,,,,,,,,,,,,,,,,,,,,,,,,,,,,,,,,,,,,,,,,,,,,,,,,,,,,,,,,,,,,,,,,,324.3568257000002,324.41255409999985,324.8715277000001,324.8715559000002,325.3708319000002,325.77221169999984,325.65473329999986,325.65475030000016,326.9730755999999,326.9730755999999,327.2899037000002,space,1,0.3066817999997511,None,,010,001,2023-11-12_14h31.39.111,untitled,2023.2.2,59.94158093535291,2023-11-12 14h31.57.479065 +0800,
1,condition_2/rightstar.PNG,space,,,,,,,,,,,,,0,10,10,12,327.3421079,,,,,,,,,,,,,,,,,,,,,,,,,,,,,,,,,,,,,,,,,,,,,,,,,,,,,,,,,,,,,,,,,,,,,,,,,,,,,,,,,,,,,,,,,,,,,,,,,,,,,,,,,,327.2912277999999,327.3421079,327.8052413999999,327.80527010000014,328.30407030000015,328.71323070000017,328.5893209000001,328.5893529,329.90638450000006,329.90638450000006,330.29003330000023,space,1,0.3748614999999518,None,,010,001,2023-11-12_14h31.39.111,untitled,2023.2.2,59.94158093535291,2023-11-12 14h31.57.479065 +0800,
2,condition_2/rightstar.PNG,space,,,,,,,,,,,,,0,11,11,13,330.34803839999995,,,,,,,,,,,,,,,,,,,,,,,,,,,,,,,,,,,,,,,,,,,,,,,,,,,,,,,,,,,,,,,,,,,,,,,,,,,,,,,,,,,,,,,,,,,,,,,,,,,,,,,,,,330.2911494,330.34803839999995,330.80508370000007,330.8051215999999,331.3041145000002,331.74331930000017,331.5882408000002,331.5882737000002,332.9062319999998,332.9062319999998,333.4074399000001,space,1,0.4859529999998813,None,,010,001,2023-11-12_14h31.39.111,untitled,2023.2.2,59.94158093535291,2023-11-12 14h31.57.479065 +0800,
8,condition_2/leftstar.PNG,left,,,,,,,,,,,,,0,12,12,18,333.47288070000013,,,,,,,,,,,,,,,,,,,,,,,,,,,,,,,,,,,,,,,,,,,,,,,,,,,,,,,,,,,,,,,,,,,,,,,,,,,,,,,,,,,,,,,,,,,,,,,,,,,,,,,,,,333.40853319999997,333.47288070000013,333.92161050000004,333.9216471,334.4206687000001,334.82372350000014,334.7050029000002,334.70504260000007,336.02296190000015,336.02296190000015,336.42306830000007,space,0,0.39460650000000896,None,,010,001,2023-11-12_14h31.39.111,untitled,2023.2.2,59.94158093535291,2023-11-12 14h31.57.479065 +0800,
8,condition_2/leftstar.PNG,left,,,,,,,,,,,,,0,13,13,2,336.48652360000006,,,,,,,,,,,,,,,,,,,,,,,,,,,,,,,,,,,,,,,,,,,,,,,,,,,,,,,,,,,,,,,,,,,,,,,,,,,,,,,,,,,,,,,,,,,,,,,,,,,,,,,,,,336.4241327999998,336.48652360000006,336.9378425,336.9378577000002,337.43761099999983,337.8449061000001,337.72230089999994,337.7223331,339.03973829999995,339.03973829999995,339.40771889999996,space,0,0.3642924000000676,None,,010,001,2023-11-12_14h31.39.111,untitled,2023.2.2,59.94158093535291,2023-11-12 14h31.57.479065 +0800,
1,condition_2/leftstar.PNG,space,,,,,,,,,,,,,0,14,14,0,339.4742388999998,,,,,,,,,,,,,,,,,,,,,,,,,,,,,,,,,,,,,,,,,,,,,,,,,,,,,,,,,,,,,,,,,,,,,,,,,,,,,,,,,,,,,,,,,,,,,,,,,,,,,,,,,,339.4088124,339.4742388999998,339.92140819999986,339.9214345999999,340.42069600000013,340.8252981999999,340.7049376,340.7049735999999,342.0228772999999,342.0228772999999,342.4234719000001,space,1,0.39178999999967346,None,,010,001,2023-11-12_14h31.39.111,untitled,2023.2.2,59.94158093535291,2023-11-12 14h31.57.479065 +0800,
1,condition_2/blank.PNG,space,,,,,,,,,,,,,0,15,15,8,342.49066089999997,,,,,,,,,,,,,,,,,,,,,,,,,,,,,,,,,,,,,,,,,,,,,,,,,,,,,,,,,,,,,,,,,,,,,,,,,,,,,,,,,,,,,,,,,,,,,,,,,,,,,,,,,,342.42457250000007,342.49066089999997,342.9382768999999,342.9383041000001,343.4375715000001,343.8372475000001,343.7217687000002,343.72179499999993,345.03878840000016,345.03878840000016,346.1723310000002,space,1,1.1222391000001153,None,345.83740910000006,010,001,2023-11-12_14h31.39.111,untitled,2023.2.2,59.94158093535291,2023-11-12 14h31.57.479065 +0800,
9,condition_2/leftstar.PNG,left,,,,,,,,,,,,,0,16,16,20,346.23225420000017,,,,,,,,,,,,,,,,,,,,,,,,,,,,,,,,,,,,,,,,,,,,,,,,,,,,,,,,,,,,,,,,,,,,,,,,,,,,,,,,,,,,,,,,,,,,,,,,,,,,,,,,,,346.1734127,346.23225420000017,346.68804580000005,346.6880844000002,347.18734840000025,347.7478565000001,347.4716778000002,347.47169310000027,348.78947259999995,348.78947259999995,349.15680470000007,left,1,0.3581537000000026,None,,010,001,2023-11-12_14h31.39.111,untitled,2023.2.2,59.94158093535291,2023-11-12 14h31.57.479065 +0800,
1,condition_2/leftstar.PNG,space,,,,,,,,,,,,,0,17,17,16,349.22086739999986,,,,,,,,,,,,,,,,,,,,,,,,,,,,,,,,,,,,,,,,,,,,,,,,,,,,,,,,,,,,,,,,,,,,,,,,,,,,,,,,,,,,,,,,,,,,,,,,,,,,,,,,,,349.15790130000005,349.22086739999986,349.67175320000024,349.6717893,350.1709270000001,350.60298620000003,350.4548202000001,350.4548470999998,351.77292720000014,351.77292720000014,352.1230012000001,space,1,0.33558369999991555,None,,010,001,2023-11-12_14h31.39.111,untitled,2023.2.2,59.94158093535291,2023-11-12 14h31.57.479065 +0800,
8,condition_2/rightstar.PNG,right,,,,,,,,,,,,,0,18,18,23,352.1813164,,,,,,,,,,,,,,,,,,,,,,,,,,,,,,,,,,,,,,,,,,,,,,,,,,,,,,,,,,,,,,,,,,,,,,,,,,,,,,,,,,,,,,,,,,,,,,,,,,,,,,,,,,352.1240849999999,352.1813164,352.63822340000024,352.63826070000005,353.1372838000002,353.54177789999994,353.4220654999999,353.4221210999999,354.7393763,354.7393763,355.20657370000026,right,1,0.45833219999985886,None,,010,001,2023-11-12_14h31.39.111,untitled,2023.2.2,59.94158093535291,2023-11-12 14h31.57.479065 +0800,
2,condition_2/rightstar.PNG,space,,,,,,,,,,,,,0,19,19,21,355.2700699000002,,,,,,,,,,,,,,,,,,,,,,,,,,,,,,,,,,,,,,,,,,,,,,,,,,,,,,,,,,,,,,,,,,,,,,,,,,,,,,,,,,,,,,,,,,,,,,,,,,,,,,,,,,355.20782229999986,355.2700699000002,355.72135949999983,355.7214168999999,356.2210447000002,356.63044219999983,356.50557489999983,356.5056171000001,357.8229845000001,357.8229845000001,358.2073211000002,space,1,0.36943029999974897,None,,010,001,2023-11-12_14h31.39.111,untitled,2023.2.2,59.94158093535291,2023-11-12 14h31.57.479065 +0800,
8,condition_2/rightstar.PNG,right,,,,,,,,,,,,,0,20,20,14,358.26168970000026,,,,,,,,,,,,,,,,,,,,,,,,,,,,,,,,,,,,,,,,,,,,,,,,,,,,,,,,,,,,,,,,,,,,,,,,,,,,,,,,,,,,,,,,,,,,,,,,,,,,,,,,,,358.2090425000001,358.26168970000026,358.72181360000013,358.72184800000014,359.2206384000001,359.6272746999998,359.50525359999983,359.50528380000014,360.8229449999999,360.8229449999999,361.15808160000006,right,1,0.3311490999999478,None,,010,001,2023-11-12_14h31.39.111,untitled,2023.2.2,59.94158093535291,2023-11-12 14h31.57.479065 +0800,
9,condition_2/blank.PNG,space,,,,,,,,,,,,,0,21,21,11,361.2123996,,,,,,,,,,,,,,,,,,,,,,,,,,,,,,,,,,,,,,,,,,,,,,,,,,,,,,,,,,,,,,,,,,,,,,,,,,,,,,,,,,,,,,,,,,,,,,,,,,,,,,,,,,361.1592657000001,361.2123996,361.67140040000004,361.6714274000001,362.1708305000002,362.5396274,362.45487589999993,362.45490580000023,363.7719510000002,363.7719510000002,365.5722165000002,space,1,1.7844503000001168,None,364.57075299999997,010,001,2023-11-12_14h31.39.111,untitled,2023.2.2,59.94158093535291,2023-11-12 14h31.57.479065 +0800,
2,condition_2/leftstar.PNG,space,,,,,,,,,,,,,0,22,22,1,365.62996139999996,,,,,,,,,,,,,,,,,,,,,,,,,,,,,,,,,,,,,,,,,,,,,,,,,,,,,,,,,,,,,,,,,,,,,,,,,,,,,,,,,,,,,,,,,,,,,,,,,,,,,,,,,,365.5727830000001,365.62996139999996,366.08786839999993,366.0878861000001,366.58733459999985,367.11221030000024,366.8720883000001,366.87213299999985,368.1901293000001,368.1901293000001,368.2732525000001,space,1,0.07426829999985785,None,,010,001,2023-11-12_14h31.39.111,untitled,2023.2.2,59.94158093535291,2023-11-12 14h31.57.479065 +0800,
8,condition_2/rightstar.PNG,right,,,,,,,,,,,,,0,23,23,6,368.32373080000025,,,,,,,,,,,,,,,,,,,,,,,,,,,,,,,,,,,,,,,,,,,,,,,,,,,,,,,,,,,,,,,,,,,,,,,,,,,,,,,,,,,,,,,,,,,,,,,,,,,,,,,,,,368.27437880000025,368.32373080000025,368.7880501999998,368.78807830000005,369.2874603,369.7296047,369.5721773,369.5722108,370.88948359999995,370.88948359999995,371.38969270000007,right,1,0.49054119999982504,None,,010,001,2023-11-12_14h31.39.111,untitled,2023.2.2,59.94158093535291,2023-11-12 14h31.57.479065 +0800,
8,condition_2/blank.PNG,space,,,,,,,,,,,,,0,24,24,24,371.4503890000001,,,,,,,,,,,,,,,,,,,,,,,,,,,,,,,,,,,,,,,,,,,,,,,,,,,,,,,,,,,,,,,,,,,,,,,,,,,,,,,,,,,,,,,,,,,,,,,,,,,,,,,,,,371.3907469999999,371.4503890000001,371.90495950000013,371.90498620000017,372.4042906999998,372.78502690000005,372.68893320000006,372.6889879999999,374.00524099999984,374.00524099999984,374.20631790000016,space,1,0.19816889999992782,None,,010,001,2023-11-12_14h31.39.111,untitled,2023.2.2,59.94158093535291,2023-11-12 14h31.57.479065 +0800,
8,condition_2/blank.PNG,space,,,,,,,,,,,,,1,0,25,24,374.26409030000013,,,,,,,,,,,,,,,,,,,,,,,,,,,,,,,,,,,,,,,,,,,,,,,,,,,,,,,,,,,,,,,,,,,,,,,,,,,,,,,,,,,,,,,,,,,,,,,,,,,,,,,,,,374.20746899999995,374.26409030000013,374.7214121000002,374.7214603000002,375.22072430000026,375.5469011,375.5055499,375.50560270000005,376.8218674,376.8218674,377.65629560000025,space,1,0.8201354000002539,None,377.62065770000027,010,001,2023-11-12_14h31.39.111,untitled,2023.2.2,59.94158093535291,2023-11-12 14h31.57.479065 +0800,
2,condition_2/rightstar.PNG,space,,,,,,,,,,,,,1,1,26,13,377.72089229999983,,,,,,,,,,,,,,,,,,,,,,,,,,,,,,,,,,,,,,,,,,,,,,,,,,,,,,,,,,,,,,,,,,,,,,,,,,,,,,,,,,,,,,,,,,,,,,,,,,,,,,,,,,377.6579663000002,377.72089229999983,378.17160250000006,378.1716359000002,378.67061090000016,379.12607660000003,378.95523809999986,378.95526500000005,380.2729456000002,380.2729456000002,380.8564491000002,space,1,0.5695209999998951,None,,010,001,2023-11-12_14h31.39.111,untitled,2023.2.2,59.94158093535291,2023-11-12 14h31.57.479065 +0800,
1,condition_2/leftstar.PNG,space,,,,,,,,,,,,,1,2,27,16,380.90996970000015,,,,,,,,,,,,,,,,,,,,,,,,,,,,,,,,,,,,,,,,,,,,,,,,,,,,,,,,,,,,,,,,,,,,,,,,,,,,,,,,,,,,,,,,,,,,,,,,,,,,,,,,,,380.85751070000015,380.90996970000015,381.37150150000025,381.37153769999986,381.87075219999997,382.27179149999984,382.15595310000026,382.15598720000025,383.47280690000025,383.47280690000025,383.83922570000004,space,1,0.35608449999972436,None,,010,001,2023-11-12_14h31.39.111,untitled,2023.2.2,59.94158093535291,2023-11-12 14h31.57.479065 +0800,
2,condition_2/rightstar.PNG,space,,,,,,,,,,,,,1,3,28,5,383.8938082999998,,,,,,,,,,,,,,,,,,,,,,,,,,,,,,,,,,,,,,,,,,,,,,,,,,,,,,,,,,,,,,,,,,,,,,,,,,,,,,,,,,,,,,,,,,,,,,,,,,,,,,,,,,383.84026670000003,383.8938082999998,384.35481489999984,384.3548592000002,384.8539445000001,385.25781259999985,385.13871610000024,385.13874620000024,386.4564519999999,386.4564519999999,387.42256350000025,space,1,0.9527688999996826,None,387.2710476000002,010,001,2023-11-12_14h31.39.111,untitled,2023.2.2,59.94158093535291,2023-11-12 14h31.57.479065 +0800,
9,condition_2/leftstar.PNG,left,,,,,,,,,,,,,1,4,29,20,387.47942869999997,,,,,,,,,,,,,,,,,,,,,,,,,,,,,,,,,,,,,,,,,,,,,,,,,,,,,,,,,,,,,,,,,,,,,,,,,,,,,,,,,,,,,,,,,,,,,,,,,,,,,,,,,,387.4236086000001,387.47942869999997,387.9380692999998,387.93812819999994,388.4376170999999,388.85923120000007,388.72180949999984,388.72187029999986,390.03948930000024,390.03948930000024,391.27257020000025,left,1,1.2307708999996976,None,390.8539049000001,010,001,2023-11-12_14h31.39.111,untitled,2023.2.2,59.94158093535291,2023-11-12 14h31.57.479065 +0800,
8,condition_2/leftstar.PNG,left,,,,,,,,,,,,,1,5,30,18,391.3330234,,,,,,,,,,,,,,,,,,,,,,,,,,,,,,,,,,,,,,,,,,,,,,,,,,,,,,,,,,,,,,,,,,,,,,,,,,,,,,,,,,,,,,,,,,,,,,,,,,,,,,,,,,391.2736556,391.3330234,391.78843159999997,391.78849020000007,392.28737880000017,392.69357739999987,392.5718717999998,392.57190119999996,393.88931460000003,393.88931460000003,395.10543610000013,space,0,1.2021187999998801,None,394.70404020000024,010,001,2023-11-12_14h31.39.111,untitled,2023.2.2,59.94158093535291,2023-11-12 14h31.57.479065 +0800,
8,condition_2/rightstar.PNG,right,,,,,,,,,,,,,1,6,31,6,395.1665238999999,,,,,,,,,,,,,,,,,,,,,,,,,,,,,,,,,,,,,,,,,,,,,,,,,,,,,,,,,,,,,,,,,,,,,,,,,,,,,,,,,,,,,,,,,,,,,,,,,,,,,,,,,,395.1063832,395.1665238999999,395.6218841,395.6219393000001,396.1206345999999,396.56366890000027,396.4053761,396.405432,397.7228768,397.7228768,398.25638549999985,space,0,0.5194894000001113,None,,010,001,2023-11-12_14h31.39.111,untitled,2023.2.2,59.94158093535291,2023-11-12 14h31.57.479065 +0800,
9,condition_2/leftstar.PNG,left,,,,,,,,,,,,,1,7,32,19,398.30897060000007,,,,,,,,,,,,,,,,,,,,,,,,,,,,,,,,,,,,,,,,,,,,,,,,,,,,,,,,,,,,,,,,,,,,,,,,,,,,,,,,,,,,,,,,,,,,,,,,,,,,,,,,,,398.25751579999996,398.30897060000007,398.7714353000001,398.77147190000005,399.2708438999998,399.67399290000003,399.55534709999984,399.55539039999985,400.8727690999999,400.8727690999999,401.35641940000005,left,1,0.4804847000000336,None,,010,001,2023-11-12_14h31.39.111,untitled,2023.2.2,59.94158093535291,2023-11-12 14h31.57.479065 +0800,
8,condition_2/blank.PNG,space,,,,,,,,,,,,,1,8,33,10,401.4134846000002,,,,,,,,,,,,,,,,,,,,,,,,,,,,,,,,,,,,,,,,,,,,,,,,,,,,,,,,,,,,,,,,,,,,,,,,,,,,,,,,,,,,,,,,,,,,,,,,,,,,,,,,,,401.35747790000005,401.4134846000002,401.8717246000001,401.87178300000005,402.37055599999985,402.7896592000002,402.65558379999993,402.6556125000002,403.97202359999983,403.97202359999983,405.10528550000026,space,1,1.1182509999998729,None,404.77067080000006,010,001,2023-11-12_14h31.39.111,untitled,2023.2.2,59.94158093535291,2023-11-12 14h31.57.479065 +0800,
1,condition_2/leftstar.PNG,space,,,,,,,,,,,,,1,9,34,0,405.15881679999984,,,,,,,,,,,,,,,,,,,,,,,,,,,,,,,,,,,,,,,,,,,,,,,,,,,,,,,,,,,,,,,,,,,,,,,,,,,,,,,,,,,,,,,,,,,,,,,,,,,,,,,,,,405.1061152000002,405.15881679999984,405.62178010000025,405.621807,406.12070619999986,406.65505140000005,406.40517069999987,406.4051970999999,407.7231372000001,407.7231372000001,408.1564718999998,space,1,0.4274264000000585,None,,010,001,2023-11-12_14h31.39.111,untitled,2023.2.2,59.94158093535291,2023-11-12 14h31.57.479065 +0800,
1,condition_2/leftstar.PNG,space,,,,,,,,,,,,,1,10,35,22,408.2198920999999,,,,,,,,,,,,,,,,,,,,,,,,,,,,,,,,,,,,,,,,,,,,,,,,,,,,,,,,,,,,,,,,,,,,,,,,,,,,,,,,,,,,,,,,,,,,,,,,,,,,,,,,,,408.1576246999998,408.2198920999999,408.6714406000001,408.6714741999999,409.17066380000006,409.59484040000007,409.45567170000004,409.4557251000001,410.7734556999999,410.7734556999999,411.15669449999996,space,1,0.3689012000004368,None,,010,001,2023-11-12_14h31.39.111,untitled,2023.2.2,59.94158093535291,2023-11-12 14h31.57.479065 +0800,
2,condition_2/blank.PNG,space,,,,,,,,,,,,,1,11,36,9,411.2075272000002,,,,,,,,,,,,,,,,,,,,,,,,,,,,,,,,,,,,,,,,,,,,,,,,,,,,,,,,,,,,,,,,,,,,,,,,,,,,,,,,,,,,,,,,,,,,,,,,,,,,,,,,,,411.1575576,411.2075272000002,411.67147650000015,411.6715141999998,412.17073470000014,412.53889449999997,412.45524290000003,412.45528760000025,413.77163389999987,413.77163389999987,414.15623259999984,space,1,0.3777082000001428,None,,010,001,2023-11-12_14h31.39.111,untitled,2023.2.2,59.94158093535291,2023-11-12 14h31.57.479065 +0800,
1,condition_2/blank.PNG,space,,,,,,,,,,,,,1,12,37,8,414.22363559999985,,,,,,,,,,,,,,,,,,,,,,,,,,,,,,,,,,,,,,,,,,,,,,,,,,,,,,,,,,,,,,,,,,,,,,,,,,,,,,,,,,,,,,,,,,,,,,,,,,,,,,,,,,414.1572285000002,414.22363559999985,414.6714499999998,414.67147539999996,415.17103020000013,415.50245940000013,415.45465490000015,415.4546817999999,416.77191660000017,416.77191660000017,416.9561039,space,1,0.17344190000039816,None,,010,001,2023-11-12_14h31.39.111,untitled,2023.2.2,59.94158093535291,2023-11-12 14h31.57.479065 +0800,
1,condition_2/rightstar.PNG,space,,,,,,,,,,,,,1,13,38,4,417.02838250000013,,,,,,,,,,,,,,,,,,,,,,,,,,,,,,,,,,,,,,,,,,,,,,,,,,,,,,,,,,,,,,,,,,,,,,,,,,,,,,,,,,,,,,,,,,,,,,,,,,,,,,,,,,416.95725070000026,417.02838250000013,417.4715249000001,417.47155150000026,417.97059530000024,418.4169114000001,418.2552882,418.25531720000026,419.57280960000026,419.57280960000026,419.6385052999999,space,1,0.053098899999895366,None,,010,001,2023-11-12_14h31.39.111,untitled,2023.2.2,59.94158093535291,2023-11-12 14h31.57.479065 +0800,
9,condition_2/rightstar.PNG,right,,,,,,,,,,,,,1,14,39,7,419.6916977000001,,,,,,,,,,,,,,,,,,,,,,,,,,,,,,,,,,,,,,,,,,,,,,,,,,,,,,,,,,,,,,,,,,,,,,,,,,,,,,,,,,,,,,,,,,,,,,,,,,,,,,,,,,419.6391047000002,419.6916977000001,420.15468899999996,420.1547147000001,420.6540636999998,421.0573972000002,420.9400237,420.94005389999984,422.2565082000001,422.2565082000001,423.1904502000002,right,1,0.916961700000229,None,423.0705634000001,010,001,2023-11-12_14h31.39.111,untitled,2023.2.2,59.94158093535291,2023-11-12 14h31.57.479065 +0800,
9,condition_2/rightstar.PNG,right,,,,,,,,,,,,,1,15,40,15,423.2442995000001,,,,,,,,,,,,,,,,,,,,,,,,,,,,,,,,,,,,,,,,,,,,,,,,,,,,,,,,,,,,,,,,,,,,,,,,,,,,,,,,,,,,,,,,,,,,,,,,,,,,,,,,,,423.19174580000026,423.2442995000001,423.7058477999999,423.7058972,424.20398939999995,424.6050014000002,424.4883417000001,424.4883681000001,425.80632349999996,425.80632349999996,426.47368700000015,right,1,0.6629149000000325,None,,010,001,2023-11-12_14h31.39.111,untitled,2023.2.2,59.94158093535291,2023-11-12 14h31.57.479065 +0800,
2,condition_2/leftstar.PNG,space,,,,,,,,,,,,,1,16,41,17,426.5352710000002,,,,,,,,,,,,,,,,,,,,,,,,,,,,,,,,,,,,,,,,,,,,,,,,,,,,,,,,,,,,,,,,,,,,,,,,,,,,,,,,,,,,,,,,,,,,,,,,,,,,,,,,,,426.4747803999999,426.5352710000002,426.98858640000026,426.9886295000001,427.48715089999996,427.91439530000025,427.77177299999994,427.7718006,429.08984409999994,429.08984409999994,429.48969940000006,space,1,0.3883429999996224,None,,010,001,2023-11-12_14h31.39.111,untitled,2023.2.2,59.94158093535291,2023-11-12 14h31.57.479065 +0800,
8,condition_2/rightstar.PNG,right,,,,,,,,,,,,,1,17,42,23,429.54367279999997,,,,,,,,,,,,,,,,,,,,,,,,,,,,,,,,,,,,,,,,,,,,,,,,,,,,,,,,,,,,,,,,,,,,,,,,,,,,,,,,,,,,,,,,,,,,,,,,,,,,,,,,,,429.49074710000014,429.54367279999997,430.0046984999999,430.00473580000016,430.50432809999984,430.91016519999994,430.78892570000016,430.7889613000002,432.10602100000006,432.10602100000006,432.45648489999985,right,1,0.34835359999988214,None,,010,001,2023-11-12_14h31.39.111,untitled,2023.2.2,59.94158093535291,2023-11-12 14h31.57.479065 +0800,
9,condition_2/leftstar.PNG,left,,,,,,,,,,,,,1,18,43,3,432.51363889999993,,,,,,,,,,,,,,,,,,,,,,,,,,,,,,,,,,,,,,,,,,,,,,,,,,,,,,,,,,,,,,,,,,,,,,,,,,,,,,,,,,,,,,,,,,,,,,,,,,,,,,,,,,432.4575823,432.51363889999993,432.97140949999994,432.9714368,433.47046439999986,433.8748479000001,433.75479529999984,433.75482379999994,435.0727219999999,435.0727219999999,435.95564939999986,left,1,0.8735326999999415,None,435.87055910000026,010,001,2023-11-12_14h31.39.111,untitled,2023.2.2,59.94158093535291,2023-11-12 14h31.57.479065 +0800,
1,condition_2/rightstar.PNG,space,,,,,,,,,,,,,1,19,44,12,436.01003500000024,,,,,,,,,,,,,,,,,,,,,,,,,,,,,,,,,,,,,,,,,,,,,,,,,,,,,,,,,,,,,,,,,,,,,,,,,,,,,,,,,,,,,,,,,,,,,,,,,,,,,,,,,,435.95675389999997,436.01003500000024,436.47156099999984,436.4716211,436.9708835000001,437.3653902000001,437.25476449999996,437.2548074000001,438.5730030999998,438.5730030999998,439.43974690000005,space,1,0.8572871000001214,None,439.3873668000001,010,001,2023-11-12_14h31.39.111,untitled,2023.2.2,59.94158093535291,2023-11-12 14h31.57.479065 +0800,
2,condition_2/rightstar.PNG,space,,,,,,,,,,,,,1,20,45,21,439.49640910000016,,,,,,,,,,,,,,,,,,,,,,,,,,,,,,,,,,,,,,,,,,,,,,,,,,,,,,,,,,,,,,,,,,,,,,,,,,,,,,,,,,,,,,,,,,,,,,,,,,,,,,,,,,439.44098810000014,439.49640910000016,439.95524160000014,439.95526960000007,440.4540434999999,440.86084389999996,440.73818770000025,440.7382109,442.05632400000013,442.05632400000013,442.4895618999999,space,1,0.42118189999973765,None,,010,001,2023-11-12_14h31.39.111,untitled,2023.2.2,59.94158093535291,2023-11-12 14h31.57.479065 +0800,
2,condition_2/leftstar.PNG,space,,,,,,,,,,,,,1,21,46,1,442.55034000000023,,,,,,,,,,,,,,,,,,,,,,,,,,,,,,,,,,,,,,,,,,,,,,,,,,,,,,,,,,,,,,,,,,,,,,,,,,,,,,,,,,,,,,,,,,,,,,,,,,,,,,,,,,442.49064850000013,442.55034000000023,443.00497989999985,443.005005,443.5041577000002,443.9061178000002,443.7882860999998,443.78831420000006,445.10612230000015,445.10612230000015,445.42273449999993,space,1,0.31194619999996576,None,,010,001,2023-11-12_14h31.39.111,untitled,2023.2.2,59.94158093535291,2023-11-12 14h31.57.479065 +0800,
8,condition_2/leftstar.PNG,left,,,,,,,,,,,,,1,22,47,2,445.4750497,,,,,,,,,,,,,,,,,,,,,,,,,,,,,,,,,,,,,,,,,,,,,,,,,,,,,,,,,,,,,,,,,,,,,,,,,,,,,,,,,,,,,,,,,,,,,,,,,,,,,,,,,,445.42378629999985,445.4750497,445.93824829999994,445.93830579999985,446.4373713,446.85680839999986,446.72183010000026,446.7218607,448.03956240000025,448.03956240000025,448.35692800000015,left,1,0.30490069999996194,None,,010,001,2023-11-12_14h31.39.111,untitled,2023.2.2,59.94158093535291,2023-11-12 14h31.57.479065 +0800,
9,condition_2/blank.PNG,space,,,,,,,,,,,,,1,23,48,11,448.4116617999998,,,,,,,,,,,,,,,,,,,,,,,,,,,,,,,,,,,,,,,,,,,,,,,,,,,,,,,,,,,,,,,,,,,,,,,,,,,,,,,,,,,,,,,,,,,,,,,,,,,,,,,,,,448.35801500000025,448.4116617999998,448.87177789999987,448.8718048999999,449.3706817000002,449.7852819999998,449.65508580000005,449.6551147,450.97228080000014,450.97228080000014,452.7223377,space,1,1.7359424999999646,None,451.77093990000003,010,001,2023-11-12_14h31.39.111,untitled,2023.2.2,59.94158093535291,2023-11-12 14h31.57.479065 +0800,
8,condition_2/rightstar.PNG,right,,,,,,,,,,,,,1,24,49,14,452.7756733000001,,,,,,,,,,,,,,,,,,,,,,,,,,,,,,,,,,,,,,,,,,,,,,,,,,,,,,,,,,,,,,,,,,,,,,,,,,,,,,,,,,,,,,,,,,,,,,,,,,,,,,,,,,452.7233839999999,452.7756733000001,453.2379267000001,453.23795440000004,453.7372749000001,454.25662509999984,454.02169490000006,454.0217198999999,455.33955530000003,455.33955530000003,455.73959590000004,right,1,0.39766180000015083,None,,010,001,2023-11-12_14h31.39.111,untitled,2023.2.2,59.94158093535291,2023-11-12 14h31.57.479065 +0800,
