stimuli,star,CorrectAns,trials_3.thisRepN,trials_3.thisTrialN,trials_3.thisN,trials_3.thisIndex,trials.thisRepN,trials.thisTrialN,trials.thisN,trials.thisIndex,trials_4.thisRepN,trials_4.thisTrialN,trials_4.thisN,trials_4.thisIndex,trials_2.thisRepN,trials_2.thisTrialN,trials_2.thisN,trials_2.thisIndex,thisRow.t,notes,routine_21.started,text_9.started,key_resp_8.started,routine_21.stopped,key_resp_8.keys,key_resp_8.rt,key_resp_8.duration,introduction.started,text_6.started,key_resp_5.started,introduction.stopped,key_resp_5.keys,key_resp_5.rt,key_resp_5.duration,routine_14.started,image_6.started,routine_14.stopped,routine_16.started,text_4.started,text_4.stopped,routine_16.stopped,routine_17.started,image_7.started,key_resp_3.started,image_7.stopped,routine_17.stopped,key_resp_3.keys,key_resp_3.rt,key_resp_3.duration,routine_20.started,text_8.started,key_resp_7.started,routine_20.stopped,key_resp_7.keys,key_resp_7.rt,key_resp_7.duration,routine_18.started,text_5.started,key_resp_4.started,routine_18.stopped,key_resp_4.keys,key_resp_4.rt,key_resp_4.duration,trial.started,image_3.started,trial.stopped,routine.started,text_3.started,text_3.stopped,routine.stopped,routine_1.started,image_2.started,key_resp.started,image_2.stopped,routine_1.stopped,key_resp.keys,key_resp.corr,key_resp.rt,key_resp.duration,routine_22.started,text_10.started,key_resp_9.started,routine_22.stopped,key_resp_9.keys,key_resp_9.rt,key_resp_9.duration,routine_19.started,text_7.started,key_resp_6.started,routine_19.stopped,key_resp_6.keys,key_resp_6.rt,key_resp_6.duration,routine_23.started,image_8.started,routine_23.stopped,routine_24.started,text_11.started,text_11.stopped,routine_24.stopped,routine_25.started,image_9.started,key_resp_10.started,image_9.stopped,routine_25.stopped,key_resp_10.keys,key_resp_10.rt,key_resp_10.duration,routine_26.started,text_12.started,key_resp_11.started,text_12.stopped,routine_26.stopped,key_resp_11.keys,key_resp_11.rt,key_resp_11.duration,routine_27.started,text_13.started,key_resp_12.started,text_13.stopped,routine_27.stopped,key_resp_12.keys,key_resp_12.rt,key_resp_12.duration,routine_10.started,image_4.started,routine_10.stopped,routine_11.started,text.started,text.stopped,routine_11.stopped,routine_12.started,image_5.started,key_resp_2.started,image_5.stopped,routine_12.stopped,key_resp_2.keys,key_resp_2.corr,key_resp_2.rt,key_resp_2.duration,participant,session,date,expName,psychopyVersion,frameRate,expStart,
,,,,,,,,,,,,,,,,,,,,,0.0031709999998383864,0.007138999999824591,0.007138999999824591,0.9300843999999415,space,0.9053634000001693,None,,,,,,,,,,,,,,,,,,,,,,,,,,,,,,,,,,,,,,,,,,,,,,,,,,,,,,,,,,,,,,,,,,,,,,,,,,,,,,,,,,,,,,,,,,,,,,,,,,,,,,,,,,,,,,,,,,013,001,2023-11-12_14h41.35.298,untitled,2023.2.2,60.14903728451227,2023-11-12 14h41.45.689198 +0800,
,,,,,,,,,,,,,,,,,,,,,,,,,,,,0.9301430000000437,0.9446452000001955,0.9446452000001955,23.730061400000068,space,22.778335900000002,None,,,,,,,,,,,,,,,,,,,,,,,,,,,,,,,,,,,,,,,,,,,,,,,,,,,,,,,,,,,,,,,,,,,,,,,,,,,,,,,,,,,,,,,,,,,,,,,,,,,,,,,,,,,013,001,2023-11-12_14h41.35.298,untitled,2023.2.2,60.14903728451227,2023-11-12 14h41.45.689198 +0800,
8,test/rightstar.PNG,space,0,0,0,1,,,,,,,,,,,,,23.892822799999976,,,,,,,,,,,,,,,,23.74030959999982,23.892822799999976,24.245235100000173,24.245258399999784,24.744354999999814,25.28445869999996,25.028577600000062,25.028602899999896,26.352463100000023,26.352463100000023,27.16121770000018,27.829440800000157,right,1.4747407999998359,None,,,,,,,,,,,,,,,,,,,,,,,,,,,,,,,,,,,,,,,,,,,,,,,,,,,,,,,,,,,,,,,,,,,,,,,,,,,,,,,,,,,,,,,,,,,,013,001,2023-11-12_14h41.35.298,untitled,2023.2.2,60.14903728451227,2023-11-12 14h41.45.689198 +0800,
8,test/rightstar.PNG,space,0,1,1,5,,,,,,,,,,,,,27.89030969999976,,,,,,,,,,,,,,,,27.830738799999835,27.89030969999976,28.345129299999826,28.345150499999818,28.844249199999922,29.264503400000194,29.128505399999995,29.12852900000007,30.44657929999994,30.44657929999994,31.261269000000084,33.21311340000011,right,2.764045100000203,None,,,,,,,,,,,,,,,,,,,,,,,,,,,,,,,,,,,,,,,,,,,,,,,,,,,,,,,,,,,,,,,,,,,,,,,,,,,,,,,,,,,,,,,,,,,,013,001,2023-11-12_14h41.35.298,untitled,2023.2.2,60.14903728451227,2023-11-12 14h41.45.689198 +0800,
1,test/leftstar.PNG,left,0,2,2,0,,,,,,,,,,,,,33.270172099999854,,,,,,,,,,,,,,,,33.2140574,33.270172099999854,33.7286223000001,33.728645400000005,34.22756279999976,34.655581800000164,34.511861599999975,34.511885699999766,35.8297991999998,35.8297991999998,,36.2467529999999,left,0.4049448000000666,None,,,,,,,,,,,,,,,,,,,,,,,,,,,,,,,,,,,,,,,,,,,,,,,,,,,,,,,,,,,,,,,,,,,,,,,,,,,,,,,,,,,,,,,,,,,,013,001,2023-11-12_14h41.35.298,untitled,2023.2.2,60.14903728451227,2023-11-12 14h41.45.689198 +0800,
2,test/leftstar.PNG,left,0,3,3,4,,,,,,,,,,,,,36.30754710000019,,,,,,,,,,,,,,,,36.247692500000085,36.30754710000019,36.761930199999824,36.76196579999987,37.26094699999976,37.699705800000174,37.54534019999983,37.54535889999988,38.86342079999986,38.86342079999986,,39.563655500000095,left,0.6928068000001986,None,,,,,,,,,,,,,,,,,,,,,,,,,,,,,,,,,,,,,,,,,,,,,,,,,,,,,,,,,,,,,,,,,,,,,,,,,,,,,,,,,,,,,,,,,,,,013,001,2023-11-12_14h41.35.298,untitled,2023.2.2,60.14903728451227,2023-11-12 14h41.45.689198 +0800,
1,test/blank.PNG,space,0,4,4,2,,,,,,,,,,,,,39.62725769999997,,,,,,,,,,,,,,,,39.56455580000011,39.62725769999997,40.079381099999864,40.079405999999835,40.5775435999999,41.00541109999995,40.86230429999978,40.8623290999999,42.179088500000034,42.179088500000034,42.97788589999982,43.74594819999993,space,1.5623851000000286,None,,,,,,,,,,,,,,,,,,,,,,,,,,,,,,,,,,,,,,,,,,,,,,,,,,,,,,,,,,,,,,,,,,,,,,,,,,,,,,,,,,,,,,,,,,,,013,001,2023-11-12_14h41.35.298,untitled,2023.2.2,60.14903728451227,2023-11-12 14h41.45.689198 +0800,
9,test/rightstar.PNG,space,0,5,5,3,,,,,,,,,,,,,43.805277399999795,,,,,,,,,,,,,,,,43.74687919999997,43.805277399999795,44.26229329999978,44.262315599999965,44.76125090000005,45.31761899999992,45.04573560000017,45.045768399999815,46.36323859999993,46.36323859999993,,47.14683490000016,space,0.7785181999997803,None,,,,,,,,,,,,,,,,,,,,,,,,,,,,,,,,,,,,,,,,,,,,,,,,,,,,,,,,,,,,,,,,,,,,,,,,,,,,,,,,,,,,,,,,,,,,013,001,2023-11-12_14h41.35.298,untitled,2023.2.2,60.14903728451227,2023-11-12 14h41.45.689198 +0800,
,,,,,,,,,,,,,,,,,,,,,,,,,,,,,,,,,,,,,,,,,,,,,,,,,,47.14743210000006,47.16089069999998,47.16089069999998,49.612622199999805,space,2.4348604000001615,None,,,,,,,,,,,,,,,,,,,,,,,,,,,,,,,,,,,,,,,,,,,,,,,,,,,,,,,,,,,,,,,,,,,,,,,,,,,,,,,,,,,,,013,001,2023-11-12_14h41.35.298,untitled,2023.2.2,60.14903728451227,2023-11-12 14h41.45.689198 +0800,
,,,,,,,,,,,,,,,,,,,,,,,,,,,,,,,,,,,,,,,,,,,,,,,,,,,,,,,,,49.612679599999865,49.627731499999754,49.627731499999754,51.49582539999983,space,1.8618334999996478,None,,,,,,,,,,,,,,,,,,,,,,,,,,,,,,,,,,,,,,,,,,,,,,,,,,,,,,,,,,,,,,,,,,,,,,,,,,,,,,013,001,2023-11-12_14h41.35.298,untitled,2023.2.2,60.14903728451227,2023-11-12 14h41.45.689198 +0800,
2,condition_1/blank.PNG,space,,,,,0,0,0,9,,,,,,,,,51.57203350000009,,,,,,,,,,,,,,,,,,,,,,,,,,,,,,,,,,,,,,,,,,,,,51.51218139999992,51.57203350000009,52.01190970000016,52.01196429999982,52.51112469999998,52.882165200000145,52.79576760000009,52.795796899999914,54.11256649999996,54.11256649999996,54.92793110000002,55.263394999999946,space,1,1.1363772000004246,None,,,,,,,,,,,,,,,,,,,,,,,,,,,,,,,,,,,,,,,,,,,,,,,,,,,,,,,,,,,,,,013,001,2023-11-12_14h41.35.298,untitled,2023.2.2,60.14903728451227,2023-11-12 14h41.45.689198 +0800,
9,condition_1/rightstar.PNG,space,,,,,0,1,1,15,,,,,,,,,55.394972199999756,,,,,,,,,,,,,,,,,,,,,,,,,,,,,,,,,,,,,,,,,,,,,55.26492449999978,55.394972199999756,55.778384899999764,55.77840759999981,56.277870399999756,56.849867299999914,56.562124999999924,56.56215770000017,57.88001249999979,57.88001249999979,,57.89695329999995,space,1,0.003940099999908853,None,,,,,,,,,,,,,,,,,,,,,,,,,,,,,,,,,,,,,,,,,,,,,,,,,,,,,,,,,,,,,,013,001,2023-11-12_14h41.35.298,untitled,2023.2.2,60.14903728451227,2023-11-12 14h41.45.689198 +0800,
8,condition_1/rightstar.PNG,space,,,,,0,2,2,14,,,,,,,,,57.9946774,,,,,,,,,,,,,,,,,,,,,,,,,,,,,,,,,,,,,,,,,,,,,57.89807130000008,57.9946774,58.41197860000011,58.41201050000018,58.91136689999985,59.34604029999991,59.19590819999985,59.195939199999884,60.51378590000013,60.51378590000013,,61.16530280000006,space,1,0.6467176000001018,None,,,,,,,,,,,,,,,,,,,,,,,,,,,,,,,,,,,,,,,,,,,,,,,,,,,,,,,,,,,,,,013,001,2023-11-12_14h41.35.298,untitled,2023.2.2,60.14903728451227,2023-11-12 14h41.45.689198 +0800,
1,condition_1/leftstar.PNG,left,,,,,0,3,3,0,,,,,,,,,61.228470000000016,,,,,,,,,,,,,,,,,,,,,,,,,,,,,,,,,,,,,,,,,,,,,61.16651439999987,61.228470000000016,61.67841120000003,61.67844379999997,62.177539499999966,62.617659600000025,62.46203659999992,62.462068100000124,63.779947699999866,63.779947699999866,64.59434569999985,64.64667989999998,left,1,0.8541583999999602,None,,,,,,,,,,,,,,,,,,,,,,,,,,,,,,,,,,,,,,,,,,,,,,,,,,,,,,,,,,,,,,013,001,2023-11-12_14h41.35.298,untitled,2023.2.2,60.14903728451227,2023-11-12 14h41.45.689198 +0800,
2,condition_1/leftstar.PNG,left,,,,,0,4,4,1,,,,,,,,,64.71539470000016,,,,,,,,,,,,,,,,,,,,,,,,,,,,,,,,,,,,,,,,,,,,,64.64778810000007,64.71539470000016,65.16200819999995,65.1620327999999,65.66086869999981,66.10746969999991,65.94535580000002,65.9453838999998,67.26300660000015,67.26300660000015,,67.76303330000019,left,1,0.48564699999997174,None,,,,,,,,,,,,,,,,,,,,,,,,,,,,,,,,,,,,,,,,,,,,,,,,,,,,,,,,,,,,,,013,001,2023-11-12_14h41.35.298,untitled,2023.2.2,60.14903728451227,2023-11-12 14h41.45.689198 +0800,
9,condition_1/leftstar.PNG,space,,,,,0,5,5,19,,,,,,,,,67.83515739999984,,,,,,,,,,,,,,,,,,,,,,,,,,,,,,,,,,,,,,,,,,,,,67.7638963999998,67.83515739999984,68.2784356000002,68.27845359999992,68.77774080000017,69.18530640000017,69.06188299999985,69.06190699999979,70.37964659999989,70.37964659999989,71.19434599999977,71.21251679999978,space,1,0.829853500000354,None,,,,,,,,,,,,,,,,,,,,,,,,,,,,,,,,,,,,,,,,,,,,,,,,,,,,,,,,,,,,,,013,001,2023-11-12_14h41.35.298,untitled,2023.2.2,60.14903728451227,2023-11-12 14h41.45.689198 +0800,
9,condition_1/rightstar.PNG,space,,,,,0,6,6,7,,,,,,,,,71.27162499999986,,,,,,,,,,,,,,,,,,,,,,,,,,,,,,,,,,,,,,,,,,,,,71.2136061000001,71.27162499999986,71.7288122,71.72884440000007,72.2278953,72.64008740000008,72.51243810000005,72.51246559999981,73.83042380000006,73.83042380000006,,74.28029800000013,space,1,0.43371499999966545,None,,,,,,,,,,,,,,,,,,,,,,,,,,,,,,,,,,,,,,,,,,,,,,,,,,,,,,,,,,,,,,013,001,2023-11-12_14h41.35.298,untitled,2023.2.2,60.14903728451227,2023-11-12 14h41.45.689198 +0800,
2,condition_1/leftstar.PNG,left,,,,,0,7,7,22,,,,,,,,,74.34293680000019,,,,,,,,,,,,,,,,,,,,,,,,,,,,,,,,,,,,,,,,,,,,,74.2813999,74.34293680000019,74.79570169999988,74.79575509999995,75.29431849999992,75.73449179999989,75.5786363000002,75.57866120000017,76.89627329999985,76.89627329999985,77.71112589999984,78.31242410000004,space,0,1.4055438000000322,None,,,,,,,,,,,,,,,,,,,,,,,,,,,,,,,,,,,,,,,,,,,,,,,,,,,,,,,,,,,,,,013,001,2023-11-12_14h41.35.298,untitled,2023.2.2,60.14903728451227,2023-11-12 14h41.45.689198 +0800,
1,condition_1/rightstar.PNG,right,,,,,0,8,8,12,,,,,,,,,78.37454979999984,,,,,,,,,,,,,,,,,,,,,,,,,,,,,,,,,,,,,,,,,,,,,78.31356820000019,78.37454979999984,78.82838009999978,78.82840420000002,79.32799849999992,79.7330336,79.61175569999978,79.61178149999978,80.93008740000005,80.93008740000005,,81.51365780000015,right,1,0.5777322000003551,None,,,,,,,,,,,,,,,,,,,,,,,,,,,,,,,,,,,,,,,,,,,,,,,,,,,,,,,,,,,,,,013,001,2023-11-12_14h41.35.298,untitled,2023.2.2,60.14903728451227,2023-11-12 14h41.45.689198 +0800,
8,condition_1/blank.PNG,space,,,,,0,9,9,10,,,,,,,,,81.5716483000001,,,,,,,,,,,,,,,,,,,,,,,,,,,,,,,,,,,,,,,,,,,,,81.51526310000008,81.5716483000001,82.02851199999986,82.02853490000007,82.52775759999986,82.94582790000004,82.81177419999995,82.81179900000006,84.12892729999976,84.12892729999976,84.92783289999988,85.0975698000002,space,1,0.9439120000001822,None,,,,,,,,,,,,,,,,,,,,,,,,,,,,,,,,,,,,,,,,,,,,,,,,,,,,,,,,,,,,,,013,001,2023-11-12_14h41.35.298,untitled,2023.2.2,60.14903728451227,2023-11-12 14h41.45.689198 +0800,
8,condition_1/leftstar.PNG,space,,,,,0,10,10,2,,,,,,,,,85.14867090000007,,,,,,,,,,,,,,,,,,,,,,,,,,,,,,,,,,,,,,,,,,,,,85.0980297000001,85.14867090000007,85.61223460000019,85.61225669999976,86.11124119999977,86.63928880000003,86.3959503000001,86.39597589999994,87.71321260000013,87.71321260000013,88.52785809999978,88.5627743,space,1,0.8383773000000474,None,,,,,,,,,,,,,,,,,,,,,,,,,,,,,,,,,,,,,,,,,,,,,,,,,,,,,,,,,,,,,,013,001,2023-11-12_14h41.35.298,untitled,2023.2.2,60.14903728451227,2023-11-12 14h41.45.689198 +0800,
9,condition_1/leftstar.PNG,space,,,,,0,11,11,24,,,,,,,,,88.61950750000005,,,,,,,,,,,,,,,,,,,,,,,,,,,,,,,,,,,,,,,,,,,,,88.5638914000001,88.61950750000005,89.07838979999997,89.07841319999989,89.57769980000012,89.99249349999991,89.86199910000005,89.86203079999996,91.18008980000013,91.18008980000013,91.99422649999997,92.07931710000003,space,1,0.8951044000000365,None,,,,,,,,,,,,,,,,,,,,,,,,,,,,,,,,,,,,,,,,,,,,,,,,,,,,,,,,,,,,,,013,001,2023-11-12_14h41.35.298,untitled,2023.2.2,60.14903728451227,2023-11-12 14h41.45.689198 +0800,
2,condition_1/blank.PNG,space,,,,,0,12,12,20,,,,,,,,,92.13844539999991,,,,,,,,,,,,,,,,,,,,,,,,,,,,,,,,,,,,,,,,,,,,,92.08049979999987,92.13844539999991,92.59545380000009,92.59547750000002,93.0944029000002,93.47430619999977,93.37867800000004,93.3787084999999,94.69549700000016,94.69549700000016,,95.3983546999998,space,1,0.6969398999999612,None,,,,,,,,,,,,,,,,,,,,,,,,,,,,,,,,,,,,,,,,,,,,,,,,,,,,,,,,,,,,,,013,001,2023-11-12_14h41.35.298,untitled,2023.2.2,60.14903728451227,2023-11-12 14h41.45.689198 +0800,
1,condition_1/rightstar.PNG,right,,,,,0,13,13,4,,,,,,,,,95.46640930000012,,,,,,,,,,,,,,,,,,,,,,,,,,,,,,,,,,,,,,,,,,,,,95.39938649999976,95.46640930000012,95.91178660000014,95.91180810000014,96.4111939999998,97.00600759999998,96.69551159999992,96.69554569999991,98.01355460000013,98.01355460000013,,98.61327290000008,right,1,0.5959564999998292,None,,,,,,,,,,,,,,,,,,,,,,,,,,,,,,,,,,,,,,,,,,,,,,,,,,,,,,,,,,,,,,013,001,2023-11-12_14h41.35.298,untitled,2023.2.2,60.14903728451227,2023-11-12 14h41.45.689198 +0800,
2,condition_1/rightstar.PNG,left,,,,,0,14,14,5,,,,,,,,,98.6696535000001,,,,,,,,,,,,,,,,,,,,,,,,,,,,,,,,,,,,,,,,,,,,,98.61439079999991,98.6696535000001,99.12859759999992,99.12862189999987,99.62759379999989,100.05527960000018,99.91217700000016,99.91220169999997,101.2298123999999,101.2298123999999,102.04412809999985,102.04576899999984,right,0,0.8128233000002183,None,,,,,,,,,,,,,,,,,,,,,,,,,,,,,,,,,,,,,,,,,,,,,,,,,,,,,,,,,,,,,,013,001,2023-11-12_14h41.35.298,untitled,2023.2.2,60.14903728451227,2023-11-12 14h41.45.689198 +0800,
9,condition_1/leftstar.PNG,space,,,,,0,15,15,3,,,,,,,,,102.10860189999994,,,,,,,,,,,,,,,,,,,,,,,,,,,,,,,,,,,,,,,,,,,,,102.0468605000001,102.10860189999994,102.56203860000005,102.56206459999976,103.06109749999996,103.47105509999983,103.34537769999997,103.34540349999997,104.66328579999981,104.66328579999981,,104.98205199999984,space,1,0.3069000000000415,None,,,,,,,,,,,,,,,,,,,,,,,,,,,,,,,,,,,,,,,,,,,,,,,,,,,,,,,,,,,,,,013,001,2023-11-12_14h41.35.298,untitled,2023.2.2,60.14903728451227,2023-11-12 14h41.45.689198 +0800,
8,condition_1/leftstar.PNG,space,,,,,0,16,16,18,,,,,,,,,105.04516899999999,,,,,,,,,,,,,,,,,,,,,,,,,,,,,,,,,,,,,,,,,,,,,104.98309070000005,105.04516899999999,105.49509380000018,105.4951245000002,105.99448769999981,106.41089120000015,106.27845630000002,106.2784815,107.59634159999996,107.59634159999996,,108.0965900000001,left,0,0.4883431999996901,None,,,,,,,,,,,,,,,,,,,,,,,,,,,,,,,,,,,,,,,,,,,,,,,,,,,,,,,,,,,,,,013,001,2023-11-12_14h41.35.298,untitled,2023.2.2,60.14903728451227,2023-11-12 14h41.45.689198 +0800,
8,condition_1/rightstar.PNG,space,,,,,0,17,17,6,,,,,,,,,108.15656439999975,,,,,,,,,,,,,,,,,,,,,,,,,,,,,,,,,,,,,,,,,,,,,108.0984214,108.15656439999975,108.61178860000018,108.61181230000011,109.11068740000019,109.52404290000004,109.39602890000015,109.3960576999998,110.71303940000007,110.71303940000007,,111.4308944999998,space,1,0.7152897000000848,None,,,,,,,,,,,,,,,,,,,,,,,,,,,,,,,,,,,,,,,,,,,,,,,,,,,,,,,,,,,,,,013,001,2023-11-12_14h41.35.298,untitled,2023.2.2,60.14903728451227,2023-11-12 14h41.45.689198 +0800,
1,condition_1/leftstar.PNG,left,,,,,0,18,18,16,,,,,,,,,111.48706839999977,,,,,,,,,,,,,,,,,,,,,,,,,,,,,,,,,,,,,,,,,,,,,111.4319703000001,111.48706839999977,111.94497510000019,111.9450066999998,112.44451530000015,112.86581530000012,112.72913759999983,112.72916440000017,114.04637860000003,114.04637860000003,,114.47987980000016,left,1,0.4166707999997925,None,,,,,,,,,,,,,,,,,,,,,,,,,,,,,,,,,,,,,,,,,,,,,,,,,,,,,,,,,,,,,,013,001,2023-11-12_14h41.35.298,untitled,2023.2.2,60.14903728451227,2023-11-12 14h41.45.689198 +0800,
1,condition_1/rightstar.PNG,right,,,,,0,19,19,21,,,,,,,,,114.5362968999998,,,,,,,,,,,,,,,,,,,,,,,,,,,,,,,,,,,,,,,,,,,,,114.48089630000004,114.5362968999998,114.99506079999992,114.99508509999987,115.4943647,115.91436599999997,115.77895420000004,115.7789785,117.09646919999977,117.09646919999977,,117.87976590000017,right,1,0.7671419999996942,None,,,,,,,,,,,,,,,,,,,,,,,,,,,,,,,,,,,,,,,,,,,,,,,,,,,,,,,,,,,,,,013,001,2023-11-12_14h41.35.298,untitled,2023.2.2,60.14903728451227,2023-11-12 14h41.45.689198 +0800,
2,condition_1/leftstar.PNG,left,,,,,0,20,20,17,,,,,,,,,117.93526539999993,,,,,,,,,,,,,,,,,,,,,,,,,,,,,,,,,,,,,,,,,,,,,117.88093769999978,117.93526539999993,118.39540020000004,118.39542560000018,118.89432889999989,119.30520590000015,119.17870679999987,119.17873800000007,120.4967160000001,120.4967160000001,,121.01341330000014,left,1,0.5145361999998386,None,,,,,,,,,,,,,,,,,,,,,,,,,,,,,,,,,,,,,,,,,,,,,,,,,,,,,,,,,,,,,,013,001,2023-11-12_14h41.35.298,untitled,2023.2.2,60.14903728451227,2023-11-12 14h41.45.689198 +0800,
8,condition_1/rightstar.PNG,space,,,,,0,21,21,23,,,,,,,,,121.06955710000011,,,,,,,,,,,,,,,,,,,,,,,,,,,,,,,,,,,,,,,,,,,,,121.01451409999981,121.06955710000011,121.52843459999985,121.52848140000015,122.0277686999998,122.43036829999983,122.3122142000002,122.31223910000017,123.62997630000018,123.62997630000018,,123.93002010000009,space,1,0.29461639999999534,None,,,,,,,,,,,,,,,,,,,,,,,,,,,,,,,,,,,,,,,,,,,,,,,,,,,,,,,,,,,,,,013,001,2023-11-12_14h41.35.298,untitled,2023.2.2,60.14903728451227,2023-11-12 14h41.45.689198 +0800,
1,condition_1/blank.PNG,space,,,,,0,22,22,8,,,,,,,,,123.9900874,,,,,,,,,,,,,,,,,,,,,,,,,,,,,,,,,,,,,,,,,,,,,123.93168680000008,123.9900874,124.44504310000002,124.4450667000001,124.94427110000015,125.35608279999997,125.22862179999993,125.22865339999998,126.54556309999998,126.54556309999998,127.34430750000001,127.44657310000002,space,1,0.8884259999999813,None,,,,,,,,,,,,,,,,,,,,,,,,,,,,,,,,,,,,,,,,,,,,,,,,,,,,,,,,,,,,,,013,001,2023-11-12_14h41.35.298,untitled,2023.2.2,60.14903728451227,2023-11-12 14h41.45.689198 +0800,
2,condition_1/rightstar.PNG,right,,,,,0,23,23,13,,,,,,,,,127.50516999999991,,,,,,,,,,,,,,,,,,,,,,,,,,,,,,,,,,,,,,,,,,,,,127.44724869999982,127.50516999999991,127.96187340000006,127.96190669999987,128.46107369999982,128.96855779999987,128.74548330000016,128.74551169999995,130.0632498,130.0632498,,130.51365720000013,right,1,0.4372367999999369,None,,,,,,,,,,,,,,,,,,,,,,,,,,,,,,,,,,,,,,,,,,,,,,,,,,,,,,,,,,,,,,013,001,2023-11-12_14h41.35.298,untitled,2023.2.2,60.14903728451227,2023-11-12 14h41.45.689198 +0800,
9,condition_1/blank.PNG,space,,,,,0,24,24,11,,,,,,,,,130.57018160000007,,,,,,,,,,,,,,,,,,,,,,,,,,,,,,,,,,,,,,,,,,,,,130.51463890000014,130.57018160000007,131.02890309999975,131.02892800000018,131.5281654999999,131.88933369999995,131.8119732,131.8119968000001,133.1292440000002,133.1292440000002,133.92779199999995,133.93004470000005,space,1,0.7914569999998093,None,,,,,,,,,,,,,,,,,,,,,,,,,,,,,,,,,,,,,,,,,,,,,,,,,,,,,,,,,,,,,,013,001,2023-11-12_14h41.35.298,untitled,2023.2.2,60.14903728451227,2023-11-12 14h41.45.689198 +0800,
9,condition_1/rightstar.PNG,space,,,,,1,0,25,15,,,,,,,,,133.98440100000016,,,,,,,,,,,,,,,,,,,,,,,,,,,,,,,,,,,,,,,,,,,,,133.9314991000001,133.98440100000016,134.44507449999992,134.4450984,134.94414000000006,135.4606343999999,135.2287750999999,135.22880880000002,136.54620840000007,136.54620840000007,,137.07857890000014,space,1,0.5153338000000076,None,,,,,,,,,,,,,,,,,,,,,,,,,,,,,,,,,,,,,,,,,,,,,,,,,,,,,,,,,,,,,,013,001,2023-11-12_14h41.35.298,untitled,2023.2.2,60.14903728451227,2023-11-12 14h41.45.689198 +0800,
1,condition_1/rightstar.PNG,right,,,,,1,1,26,4,,,,,,,,,137.14423690000012,,,,,,,,,,,,,,,,,,,,,,,,,,,,,,,,,,,,,,,,,,,,,137.07901249999986,137.14423690000012,137.59513419999985,137.59515379999993,138.09418559999995,138.5314745999999,138.3782258000001,138.37823919999983,139.6965095999999,139.6965095999999,140.51112909999983,140.64567410000018,right,1,0.938336000000163,None,,,,,,,,,,,,,,,,,,,,,,,,,,,,,,,,,,,,,,,,,,,,,,,,,,,,,,,,,,,,,,013,001,2023-11-12_14h41.35.298,untitled,2023.2.2,60.14903728451227,2023-11-12 14h41.45.689198 +0800,
2,condition_1/leftstar.PNG,left,,,,,1,2,27,17,,,,,,,,,140.71105840000018,,,,,,,,,,,,,,,,,,,,,,,,,,,,,,,,,,,,,,,,,,,,,140.64675780000016,140.71105840000018,141.16110309999976,141.16112310000017,141.66112789999988,142.09543789999998,141.9453450000001,141.94538680000005,143.26361289999977,143.26361289999977,,143.7636647999998,left,1,0.49736170000005586,None,,,,,,,,,,,,,,,,,,,,,,,,,,,,,,,,,,,,,,,,,,,,,,,,,,,,,,,,,,,,,,013,001,2023-11-12_14h41.35.298,untitled,2023.2.2,60.14903728451227,2023-11-12 14h41.45.689198 +0800,
8,condition_1/leftstar.PNG,space,,,,,1,3,28,18,,,,,,,,,143.85446749999983,,,,,,,,,,,,,,,,,,,,,,,,,,,,,,,,,,,,,,,,,,,,,143.76462089999995,143.85446749999983,144.27827919999982,144.2783088000001,144.77747020000015,145.21102169999995,145.06203069999992,145.06205899999986,146.37977820000015,146.37977820000015,147.19413729999997,147.59588070000018,space,1,1.2022007000000485,None,,,,,,,,,,,,,,,,,,,,,,,,,,,,,,,,,,,,,,,,,,,,,,,,,,,,,,,,,,,,,,013,001,2023-11-12_14h41.35.298,untitled,2023.2.2,60.14903728451227,2023-11-12 14h41.45.689198 +0800,
2,condition_1/leftstar.PNG,left,,,,,1,4,29,22,,,,,,,,,147.65243640000017,,,,,,,,,,,,,,,,,,,,,,,,,,,,,,,,,,,,,,,,,,,,,147.59696110000004,147.65243640000017,148.11180130000002,148.11182719999988,148.61109179999994,149.01257970000006,148.89553539999997,148.89556409999977,150.21282269999983,150.21282269999983,,150.6467477000001,left,1,0.431455900000401,None,,,,,,,,,,,,,,,,,,,,,,,,,,,,,,,,,,,,,,,,,,,,,,,,,,,,,,,,,,,,,,013,001,2023-11-12_14h41.35.298,untitled,2023.2.2,60.14903728451227,2023-11-12 14h41.45.689198 +0800,
1,condition_1/rightstar.PNG,right,,,,,1,5,30,12,,,,,,,,,150.70328010000003,,,,,,,,,,,,,,,,,,,,,,,,,,,,,,,,,,,,,,,,,,,,,150.64783780000016,150.70328010000003,151.16204599999992,151.16206980000015,151.66091340000003,152.0645152000002,151.9453156999998,151.94534079999994,153.26318730000003,153.26318730000003,,153.79675719999977,right,1,0.5263193000000683,None,,,,,,,,,,,,,,,,,,,,,,,,,,,,,,,,,,,,,,,,,,,,,,,,,,,,,,,,,,,,,,013,001,2023-11-12_14h41.35.298,untitled,2023.2.2,60.14903728451227,2023-11-12 14h41.45.689198 +0800,
1,condition_1/leftstar.PNG,left,,,,,1,6,31,0,,,,,,,,,153.85622049999984,,,,,,,,,,,,,,,,,,,,,,,,,,,,,,,,,,,,,,,,,,,,,153.7978508000001,153.85622049999984,154.31176129999994,154.311784,154.81111839999994,155.21452199999976,155.09519640000008,155.09522289999995,156.41330130000006,156.41330130000006,,156.91318390000015,left,1,0.48645959999976185,None,,,,,,,,,,,,,,,,,,,,,,,,,,,,,,,,,,,,,,,,,,,,,,,,,,,,,,,,,,,,,,013,001,2023-11-12_14h41.35.298,untitled,2023.2.2,60.14903728451227,2023-11-12 14h41.45.689198 +0800,
2,condition_1/blank.PNG,space,,,,,1,7,32,20,,,,,,,,,156.9731428,,,,,,,,,,,,,,,,,,,,,,,,,,,,,,,,,,,,,,,,,,,,,156.91422599999987,156.9731428,157.42856979999988,157.42859309999994,157.9276487000002,158.35580819999996,158.21315670000013,158.2131841999999,159.52937539999994,159.52937539999994,160.3442230999999,160.8630532000002,space,1,1.326390800000354,None,,,,,,,,,,,,,,,,,,,,,,,,,,,,,,,,,,,,,,,,,,,,,,,,,,,,,,,,,,,,,,013,001,2023-11-12_14h41.35.298,untitled,2023.2.2,60.14903728451227,2023-11-12 14h41.45.689198 +0800,
9,condition_1/leftstar.PNG,space,,,,,1,8,33,3,,,,,,,,,160.92130180000004,,,,,,,,,,,,,,,,,,,,,,,,,,,,,,,,,,,,,,,,,,,,,160.86412979999977,160.92130180000004,161.37846459999992,161.37848759999997,161.87758489999987,162.4003318,162.16197439999996,162.16200279999975,163.47982649999994,163.47982649999994,,164.2142531999998,left,0,0.7279175999997278,None,,,,,,,,,,,,,,,,,,,,,,,,,,,,,,,,,,,,,,,,,,,,,,,,,,,,,,,,,,,,,,013,001,2023-11-12_14h41.35.298,untitled,2023.2.2,60.14903728451227,2023-11-12 14h41.45.689198 +0800,
2,condition_1/leftstar.PNG,left,,,,,1,9,34,1,,,,,,,,,164.2693048000001,,,,,,,,,,,,,,,,,,,,,,,,,,,,,,,,,,,,,,,,,,,,,164.2152701,164.2693048000001,164.72964450000018,164.7296726999998,165.22796719999997,165.64591979999977,165.51217529999985,165.5122021000002,166.8297133000001,166.8297133000001,167.64432309999984,168.36249110000017,left,1,1.5245273999998972,None,,,,,,,,,,,,,,,,,,,,,,,,,,,,,,,,,,,,,,,,,,,,,,,,,,,,,,,,,,,,,,013,001,2023-11-12_14h41.35.298,untitled,2023.2.2,60.14903728451227,2023-11-12 14h41.45.689198 +0800,
9,condition_1/rightstar.PNG,space,,,,,1,10,35,7,,,,,,,,,168.42259539999986,,,,,,,,,,,,,,,,,,,,,,,,,,,,,,,,,,,,,,,,,,,,,168.36360299999978,168.42259539999986,168.87860360000013,168.87862600000017,169.37762539999994,169.80798839999989,169.66317070000014,169.66320140000016,170.97985019999987,170.97985019999987,,171.74724789999982,space,1,0.7562211000004027,None,,,,,,,,,,,,,,,,,,,,,,,,,,,,,,,,,,,,,,,,,,,,,,,,,,,,,,,,,,,,,,013,001,2023-11-12_14h41.35.298,untitled,2023.2.2,60.14903728451227,2023-11-12 14h41.45.689198 +0800,
2,condition_1/rightstar.PNG,left,,,,,1,11,36,5,,,,,,,,,171.80570709999984,,,,,,,,,,,,,,,,,,,,,,,,,,,,,,,,,,,,,,,,,,,,,171.74829150000005,171.80570709999984,172.26173340000014,172.26175699999976,172.7612912999998,173.16478700000016,173.0457034000001,173.04572839999992,174.36286500000006,174.36286500000006,,174.99686029999975,right,0,0.6287575000001198,None,,,,,,,,,,,,,,,,,,,,,,,,,,,,,,,,,,,,,,,,,,,,,,,,,,,,,,,,,,,,,,013,001,2023-11-12_14h41.35.298,untitled,2023.2.2,60.14903728451227,2023-11-12 14h41.45.689198 +0800,
9,condition_1/blank.PNG,space,,,,,1,12,37,11,,,,,,,,,175.05359799999997,,,,,,,,,,,,,,,,,,,,,,,,,,,,,,,,,,,,,,,,,,,,,174.99839500000007,175.05359799999997,175.5115234,175.51155229999995,176.01124560000017,176.43427489999976,176.2954705000002,176.2954979000001,177.61211240000011,177.61211240000011,178.4111026999999,178.59590160000016,space,1,0.9758693000003404,None,,,,,,,,,,,,,,,,,,,,,,,,,,,,,,,,,,,,,,,,,,,,,,,,,,,,,,,,,,,,,,013,001,2023-11-12_14h41.35.298,untitled,2023.2.2,60.14903728451227,2023-11-12 14h41.45.689198 +0800,
1,condition_1/leftstar.PNG,left,,,,,1,13,38,16,,,,,,,,,178.65807949999999,,,,,,,,,,,,,,,,,,,,,,,,,,,,,,,,,,,,,,,,,,,,,178.59689600000002,178.65807949999999,179.11182210000015,179.11184539999977,179.61095729999988,180.1879954000001,179.89554069999986,179.89557969999987,181.21342779999986,181.21342779999986,,181.82993480000005,left,1,0.6023938999996972,None,,,,,,,,,,,,,,,,,,,,,,,,,,,,,,,,,,,,,,,,,,,,,,,,,,,,,,,,,,,,,,013,001,2023-11-12_14h41.35.298,untitled,2023.2.2,60.14903728451227,2023-11-12 14h41.45.689198 +0800,
8,condition_1/rightstar.PNG,space,,,,,1,14,39,23,,,,,,,,,181.8915050999999,,,,,,,,,,,,,,,,,,,,,,,,,,,,,,,,,,,,,,,,,,,,,181.83102469999994,181.8915050999999,182.3451799999998,182.34520229999998,182.84428070000013,183.2465619999998,183.12855549999995,183.12859040000012,184.44689449999987,184.44689449999987,,185.13012459999982,space,1,0.6723976999996921,None,,,,,,,,,,,,,,,,,,,,,,,,,,,,,,,,,,,,,,,,,,,,,,,,,,,,,,,,,,,,,,013,001,2023-11-12_14h41.35.298,untitled,2023.2.2,60.14903728451227,2023-11-12 14h41.45.689198 +0800,
2,condition_1/blank.PNG,space,,,,,1,15,40,9,,,,,,,,,185.18473820000008,,,,,,,,,,,,,,,,,,,,,,,,,,,,,,,,,,,,,,,,,,,,,185.1310997999999,185.18473820000008,185.64523289999988,185.64525589999994,186.1447245999998,186.5152251999998,186.4290520999998,186.42908609999995,187.74650059999976,187.74650059999976,188.56086830000004,188.71350530000018,space,1,0.949342500000057,None,,,,,,,,,,,,,,,,,,,,,,,,,,,,,,,,,,,,,,,,,,,,,,,,,,,,,,,,,,,,,,013,001,2023-11-12_14h41.35.298,untitled,2023.2.2,60.14903728451227,2023-11-12 14h41.45.689198 +0800,
8,condition_1/leftstar.PNG,space,,,,,1,16,41,2,,,,,,,,,188.7733963999999,,,,,,,,,,,,,,,,,,,,,,,,,,,,,,,,,,,,,,,,,,,,,188.71458399999983,188.7733963999999,189.2283394000001,189.2283926,189.7281068000002,190.26636150000013,190.01196359999994,190.01198810000005,191.32980640000005,191.32980640000005,,191.76319539999986,space,1,0.42439199999989796,None,,,,,,,,,,,,,,,,,,,,,,,,,,,,,,,,,,,,,,,,,,,,,,,,,,,,,,,,,,,,,,013,001,2023-11-12_14h41.35.298,untitled,2023.2.2,60.14903728451227,2023-11-12 14h41.45.689198 +0800,
8,condition_1/rightstar.PNG,space,,,,,1,17,42,6,,,,,,,,,191.83314410000003,,,,,,,,,,,,,,,,,,,,,,,,,,,,,,,,,,,,,,,,,,,,,191.76429150000013,191.83314410000003,192.27834380000013,192.2783804999999,192.77793070000007,193.20760569999993,193.06227630000012,193.06230340000002,194.38013739999997,194.38013739999997,195.1944297,195.2293536000002,space,1,0.8336204000001999,None,,,,,,,,,,,,,,,,,,,,,,,,,,,,,,,,,,,,,,,,,,,,,,,,,,,,,,,,,,,,,,013,001,2023-11-12_14h41.35.298,untitled,2023.2.2,60.14903728451227,2023-11-12 14h41.45.689198 +0800,
9,condition_1/leftstar.PNG,space,,,,,1,18,43,19,,,,,,,,,195.28830599999992,,,,,,,,,,,,,,,,,,,,,,,,,,,,,,,,,,,,,,,,,,,,,195.23041909999984,195.28830599999992,195.74509540000008,195.74512659999982,196.2455316999999,,196.5441765999999,196.5441919,197.8467102999998,197.8467102999998,198.66110200000003,198.79530609999983,space,1,0.9336183999998866,None,,,,,,,,,,,,,,,,,,,,,,,,,,,,,,,,,,,,,,,,,,,,,,,,,,,,,,,,,,,,,,013,001,2023-11-12_14h41.35.298,untitled,2023.2.2,60.14903728451227,2023-11-12 14h41.45.689198 +0800,
8,condition_1/rightstar.PNG,space,,,,,1,19,44,14,,,,,,,,,198.84623909999982,,,,,,,,,,,,,,,,,,,,,,,,,,,,,,,,,,,,,,,,,,,,,198.79615969999986,198.84623909999982,199.31188819999988,199.31191679999984,199.81128099999978,200.22796160000007,200.09552729999996,200.09555369999998,201.4128768999999,201.4128768999999,,202.1464565000001,space,1,0.7248663000000306,None,,,,,,,,,,,,,,,,,,,,,,,,,,,,,,,,,,,,,,,,,,,,,,,,,,,,,,,,,,,,,,013,001,2023-11-12_14h41.35.298,untitled,2023.2.2,60.14903728451227,2023-11-12 14h41.45.689198 +0800,
8,condition_1/blank.PNG,space,,,,,1,20,45,10,,,,,,,,,202.2174583000001,,,,,,,,,,,,,,,,,,,,,,,,,,,,,,,,,,,,,,,,,,,,,202.1475019999998,202.2174583000001,202.66157070000008,202.66163469999992,203.1608983000001,203.59699360000013,203.44575459999987,203.44578349999983,204.76200310000013,204.76200310000013,205.5611927,205.62909649999983,space,1,0.8545455999997102,None,,,,,,,,,,,,,,,,,,,,,,,,,,,,,,,,,,,,,,,,,,,,,,,,,,,,,,,,,,,,,,013,001,2023-11-12_14h41.35.298,untitled,2023.2.2,60.14903728451227,2023-11-12 14h41.45.689198 +0800,
2,condition_1/rightstar.PNG,right,,,,,1,21,46,13,,,,,,,,,205.69540019999977,,,,,,,,,,,,,,,,,,,,,,,,,,,,,,,,,,,,,,,,,,,,,205.63023969999995,205.69540019999977,206.14512049999985,206.1451459,206.6444148999999,207.17859820000012,206.92876669999987,206.92879519999997,208.24629820000018,208.24629820000018,209.06092959999978,209.24797649999982,right,1,0.9964488999999048,None,,,,,,,,,,,,,,,,,,,,,,,,,,,,,,,,,,,,,,,,,,,,,,,,,,,,,,,,,,,,,,013,001,2023-11-12_14h41.35.298,untitled,2023.2.2,60.14903728451227,2023-11-12 14h41.45.689198 +0800,
1,condition_1/blank.PNG,space,,,,,1,22,47,8,,,,,,,,,209.30361140000014,,,,,,,,,,,,,,,,,,,,,,,,,,,,,,,,,,,,,,,,,,,,,209.2490299000001,209.30361140000014,209.76250470000014,209.7625568000003,210.26104250000026,210.63239710000016,210.54645749999963,210.54650930000025,211.86218279999957,211.86218279999957,212.66103699999985,212.66295269999955,space,1,0.7902477999996336,None,,,,,,,,,,,,,,,,,,,,,,,,,,,,,,,,,,,,,,,,,,,,,,,,,,,,,,,,,,,,,,013,001,2023-11-12_14h41.35.298,untitled,2023.2.2,60.14903728451227,2023-11-12 14h41.45.689198 +0800,
1,condition_1/rightstar.PNG,right,,,,,1,23,48,21,,,,,,,,,212.71882910000022,,,,,,,,,,,,,,,,,,,,,,,,,,,,,,,,,,,,,,,,,,,,,212.66425230000004,212.71882910000022,213.17836780000016,213.17839019999974,213.6777275000004,214.22212630000013,213.96241850000024,213.96244690000003,215.2801018,215.2801018,216.0941587999996,216.09577030000037,right,1,0.8086786000003485,None,,,,,,,,,,,,,,,,,,,,,,,,,,,,,,,,,,,,,,,,,,,,,,,,,,,,,,,,,,,,,,013,001,2023-11-12_14h41.35.298,untitled,2023.2.2,60.14903728451227,2023-11-12 14h41.45.689198 +0800,
9,condition_1/leftstar.PNG,space,,,,,1,24,49,24,,,,,,,,,216.16362930000014,,,,,,,,,,,,,,,,,,,,,,,,,,,,,,,,,,,,,,,,,,,,,216.0968300000004,216.16362930000014,216.61174149999988,216.61176460000024,217.1109881000002,217.52464989999953,217.39538470000025,217.39541110000027,218.71315690000029,218.71315690000029,219.52742070000022,219.51340379999965,space,1,0.7837790000003224,None,,,,,,,,,,,,,,,,,,,,,,,,,,,,,,,,,,,,,,,,,,,,,,,,,,,,,,,,,,,,,,013,001,2023-11-12_14h41.35.298,untitled,2023.2.2,60.14903728451227,2023-11-12 14h41.45.689198 +0800,
,,,,,,,,,,,,,,,,,,,,,,,,,,,,,,,,,,,,,,,,,,,,,,,,,,,,,,,,,,,,,,,,,,,,,,,,,,,,,,,,219.51412439999967,219.52742070000022,219.52742070000022,231.39621910000005,space,11.858376199999839,None,,,,,,,,,,,,,,,,,,,,,,,,,,,,,,,,,,,,,,,,,,,,,,,,,,,,,,,013,001,2023-11-12_14h41.35.298,untitled,2023.2.2,60.14903728451227,2023-11-12 14h41.45.689198 +0800,
,,,,,,,,,,,,,,,,,,,,,,,,,,,,,,,,,,,,,,,,,,,,,,,,,,,,,,,,,,,,,,,,,,,,,,,,,,,,,,,,,,,,,,,231.39627500000006,231.41084130000036,231.41084130000036,242.96352899999965,space,11.535589099999925,None,,,,,,,,,,,,,,,,,,,,,,,,,,,,,,,,,,,,,,,,,,,,,,,,013,001,2023-11-12_14h41.35.298,untitled,2023.2.2,60.14903728451227,2023-11-12 14h41.45.689198 +0800,
2,test2/leftstar.PNG,space,,,,,,,,,0,0,0,4,,,,,243.05685749999975,,,,,,,,,,,,,,,,,,,,,,,,,,,,,,,,,,,,,,,,,,,,,,,,,,,,,,,,,,,,,,,,,,,,,,,,,,,242.98568199999954,243.05685749999975,243.47830179999983,243.4783256999999,243.97765030000028,244.57933299999968,244.26214299999992,244.26217139999972,245.59289269999954,245.59289269999954,246.3943233,247.3129068999997,space,1.7048414999999295,None,,,,,,,,,,,,,,,,,,,,,,,,,,,,,,,,,013,001,2023-11-12_14h41.35.298,untitled,2023.2.2,60.14903728451227,2023-11-12 14h41.45.689198 +0800,
8,test2/rightstar.PNG,right,,,,,,,,,0,1,1,1,,,,,247.3706374000003,,,,,,,,,,,,,,,,,,,,,,,,,,,,,,,,,,,,,,,,,,,,,,,,,,,,,,,,,,,,,,,,,,,,,,,,,,,247.3149395999999,247.3706374000003,247.8282250000002,247.82825109999976,248.3275579000001,248.75141040000017,248.61193379999986,248.61196560000008,249.92987549999998,249.92987549999998,,250.4317116000002,right,0.4972151000001759,None,,,,,,,,,,,,,,,,,,,,,,,,,,,,,,,,,013,001,2023-11-12_14h41.35.298,untitled,2023.2.2,60.14903728451227,2023-11-12 14h41.45.689198 +0800,
9,test2/rightstar.PNG,right,,,,,,,,,0,2,2,3,,,,,250.4841792999996,,,,,,,,,,,,,,,,,,,,,,,,,,,,,,,,,,,,,,,,,,,,,,,,,,,,,,,,,,,,,,,,,,,,,,,,,,,250.43280649999997,250.4841792999996,250.94476639999993,250.94479010000032,251.4439357000001,251.85624410000037,251.7284970999999,251.72852469999998,253.04632820000006,253.04632820000006,,253.46402039999975,right,0.41566659999989497,None,,,,,,,,,,,,,,,,,,,,,,,,,,,,,,,,,013,001,2023-11-12_14h41.35.298,untitled,2023.2.2,60.14903728451227,2023-11-12 14h41.45.689198 +0800,
1,test2/leftstar.PNG,space,,,,,,,,,0,3,3,0,,,,,253.51860750000014,,,,,,,,,,,,,,,,,,,,,,,,,,,,,,,,,,,,,,,,,,,,,,,,,,,,,,,,,,,,,,,,,,,,,,,,,,,253.46498259999953,253.51860750000014,253.9785619000004,253.97858749999978,254.47732309999992,254.89516249999997,254.7617237000004,254.76175739999962,256.0797716999996,256.0797716999996,,256.3299016000001,space,0.24039730000004056,None,,,,,,,,,,,,,,,,,,,,,,,,,,,,,,,,,013,001,2023-11-12_14h41.35.298,untitled,2023.2.2,60.14903728451227,2023-11-12 14h41.45.689198 +0800,
8,test2/leftstar.PNG,left,,,,,,,,,0,4,4,5,,,,,256.3870052000002,,,,,,,,,,,,,,,,,,,,,,,,,,,,,,,,,,,,,,,,,,,,,,,,,,,,,,,,,,,,,,,,,,,,,,,,,,,256.3308229000004,256.3870052000002,256.84458900000027,256.8446157999997,257.34442750000017,257.7668229000001,257.6284133999998,257.62843880000037,258.94615390000035,258.94615390000035,,259.27992410000024,left,0.3310051000007661,None,,,,,,,,,,,,,,,,,,,,,,,,,,,,,,,,,013,001,2023-11-12_14h41.35.298,untitled,2023.2.2,60.14903728451227,2023-11-12 14h41.45.689198 +0800,
1,test2/blank.PNG,space,,,,,,,,,0,5,5,2,,,,,259.33323889999974,,,,,,,,,,,,,,,,,,,,,,,,,,,,,,,,,,,,,,,,,,,,,,,,,,,,,,,,,,,,,,,,,,,,,,,,,,,259.2807805000002,259.33323889999974,259.7949797000001,259.79501569999957,260.2940335000003,260.7121235000004,260.5778442000001,260.57786229999965,261.89585999999963,261.89585999999963,,262.0634511999997,space,0.1498380000002726,None,,,,,,,,,,,,,,,,,,,,,,,,,,,,,,,,,013,001,2023-11-12_14h41.35.298,untitled,2023.2.2,60.14903728451227,2023-11-12 14h41.45.689198 +0800,
,,,,,,,,,,,,,,,,,,,,,,,,,,,,,,,,,,,,,,,,,,,,,,,,,,,,,,,,,,,,,,,,,,,,,,,,,,,,,,,,,,,,,,,,,,,,,,,,,,,,,,,,,,,,,262.0643364999996,262.0773995999998,262.0773995999998,263.0777306,266.47947490000024,space,4.391952800000581,None,,,,,,,,,,,,,,,,,,,,,,,,,013,001,2023-11-12_14h41.35.298,untitled,2023.2.2,60.14903728451227,2023-11-12 14h41.45.689198 +0800,
,,,,,,,,,,,,,,,,,,,,,,,,,,,,,,,,,,,,,,,,,,,,,,,,,,,,,,,,,,,,,,,,,,,,,,,,,,,,,,,,,,,,,,,,,,,,,,,,,,,,,,,,,,,,,,,,,,,,,266.4795393000004,266.4940918000002,266.4940918000002,267.49401130000024,271.1455410999997,space,4.640223600000354,None,,,,,,,,,,,,,,,,,013,001,2023-11-12_14h41.35.298,untitled,2023.2.2,60.14903728451227,2023-11-12 14h41.45.689198 +0800,
9,condition_2/leftstar.PNG,left,,,,,,,,,,,,,0,0,0,20,271.2501953000001,,,,,,,,,,,,,,,,,,,,,,,,,,,,,,,,,,,,,,,,,,,,,,,,,,,,,,,,,,,,,,,,,,,,,,,,,,,,,,,,,,,,,,,,,,,,,,,,,,,,,,,,,,271.1680551999998,271.2501953000001,271.6622225000001,271.6622513000002,272.1610711000003,272.73980870000014,272.4455231000002,272.4455839000002,273.7765026999996,273.7765026999996,274.57779440000013,275.1459418000004,left,1,1.3617137999999613,None,013,001,2023-11-12_14h41.35.298,untitled,2023.2.2,60.14903728451227,2023-11-12 14h41.45.689198 +0800,
2,condition_2/blank.PNG,space,,,,,,,,,,,,,0,1,1,9,275.1985760999996,,,,,,,,,,,,,,,,,,,,,,,,,,,,,,,,,,,,,,,,,,,,,,,,,,,,,,,,,,,,,,,,,,,,,,,,,,,,,,,,,,,,,,,,,,,,,,,,,,,,,,,,,,275.14727740000035,275.1985760999996,275.6618500000004,275.6618851000003,276.16126950000034,276.54678160000003,276.4452911999997,276.4453262999996,277.76206079999974,277.76206079999974,,278.5301347000004,space,1,0.7563193000005413,None,013,001,2023-11-12_14h41.35.298,untitled,2023.2.2,60.14903728451227,2023-11-12 14h41.45.689198 +0800,
9,condition_2/rightstar.PNG,right,,,,,,,,,,,,,0,2,2,15,278.599381,,,,,,,,,,,,,,,,,,,,,,,,,,,,,,,,,,,,,,,,,,,,,,,,,,,,,,,,,,,,,,,,,,,,,,,,,,,,,,,,,,,,,,,,,,,,,,,,,,,,,,,,,,278.5311856999997,278.599381,279.04500610000014,279.0450332999999,279.5440440000002,279.9807030000002,279.82848379999996,279.8285109999997,281.1463130000002,281.1463130000002,,281.84636239999963,right,1,0.6827824000001783,None,013,001,2023-11-12_14h41.35.298,untitled,2023.2.2,60.14903728451227,2023-11-12 14h41.45.689198 +0800,
8,condition_2/rightstar.PNG,right,,,,,,,,,,,,,0,3,3,23,281.90432320000036,,,,,,,,,,,,,,,,,,,,,,,,,,,,,,,,,,,,,,,,,,,,,,,,,,,,,,,,,,,,,,,,,,,,,,,,,,,,,,,,,,,,,,,,,,,,,,,,,,,,,,,,,,281.8474704,281.90432320000036,282.36154009999973,282.36156630000005,282.8609843000004,283.28620239999964,283.1453776999997,283.145407,284.4632609999999,284.4632609999999,,284.82943030000024,right,1,0.3593356000001222,None,013,001,2023-11-12_14h41.35.298,untitled,2023.2.2,60.14903728451227,2023-11-12 14h41.45.689198 +0800,
2,condition_2/leftstar.PNG,space,,,,,,,,,,,,,0,4,4,1,284.8822890000001,,,,,,,,,,,,,,,,,,,,,,,,,,,,,,,,,,,,,,,,,,,,,,,,,,,,,,,,,,,,,,,,,,,,,,,,,,,,,,,,,,,,,,,,,,,,,,,,,,,,,,,,,,284.8303337999996,284.8822890000001,285.34516840000015,285.34518730000036,285.8442965000004,286.28666989999965,286.1287196000003,286.1287494999997,287.4466957000004,287.4466957000004,,287.7296497999996,space,1,0.2754445000000487,None,013,001,2023-11-12_14h41.35.298,untitled,2023.2.2,60.14903728451227,2023-11-12 14h41.45.689198 +0800,
2,condition_2/leftstar.PNG,space,,,,,,,,,,,,,0,5,5,17,287.79714260000037,,,,,,,,,,,,,,,,,,,,,,,,,,,,,,,,,,,,,,,,,,,,,,,,,,,,,,,,,,,,,,,,,,,,,,,,,,,,,,,,,,,,,,,,,,,,,,,,,,,,,,,,,,287.7307437999998,287.79714260000037,288.24497379999957,288.2450001999996,288.74446160000025,289.1737417000004,289.0287338999997,289.02876540000034,290.34659120000015,290.34659120000015,291.16106299999956,292.2290247000001,space,1,1.8760950999994748,None,013,001,2023-11-12_14h41.35.298,untitled,2023.2.2,60.14903728451227,2023-11-12 14h41.45.689198 +0800,
1,condition_2/leftstar.PNG,space,,,,,,,,,,,,,0,6,6,0,292.29223600000023,,,,,,,,,,,,,,,,,,,,,,,,,,,,,,,,,,,,,,,,,,,,,,,,,,,,,,,,,,,,,,,,,,,,,,,,,,,,,,,,,,,,,,,,,,,,,,,,,,,,,,,,,,292.2300717999997,292.29223600000023,292.7450388999996,292.7450792999998,293.24437080000007,293.67728389999957,293.5284625000004,293.52849309999965,294.84685999999965,294.84685999999965,295.66090110000005,296.0293638000003,space,1,1.1729144999999335,None,013,001,2023-11-12_14h41.35.298,untitled,2023.2.2,60.14903728451227,2023-11-12 14h41.45.689198 +0800,
8,condition_2/leftstar.PNG,left,,,,,,,,,,,,,0,7,7,2,296.08225980000043,,,,,,,,,,,,,,,,,,,,,,,,,,,,,,,,,,,,,,,,,,,,,,,,,,,,,,,,,,,,,,,,,,,,,,,,,,,,,,,,,,,,,,,,,,,,,,,,,,,,,,,,,,296.0304384000001,296.08225980000043,296.54522819999966,296.5452648999999,297.04428989999997,297.4437152999999,297.32863089999955,297.32866790000026,298.64626339999995,298.64626339999995,,299.0297612000004,left,1,0.36640429999988555,None,013,001,2023-11-12_14h41.35.298,untitled,2023.2.2,60.14903728451227,2023-11-12 14h41.45.689198 +0800,
8,condition_2/leftstar.PNG,left,,,,,,,,,,,,,0,8,8,18,299.0924654999999,,,,,,,,,,,,,,,,,,,,,,,,,,,,,,,,,,,,,,,,,,,,,,,,,,,,,,,,,,,,,,,,,,,,,,,,,,,,,,,,,,,,,,,,,,,,,,,,,,,,,,,,,,299.03085660000033,299.0924654999999,299.54520330000014,299.5452382000003,300.0443715000001,300.4513092999996,300.32837329999984,300.3284037000003,301.6464133999998,301.6464133999998,,301.9638496999996,left,1,0.3146559000006164,None,013,001,2023-11-12_14h41.35.298,untitled,2023.2.2,60.14903728451227,2023-11-12 14h41.45.689198 +0800,
1,condition_2/leftstar.PNG,space,,,,,,,,,,,,,0,9,9,22,302.0162766000003,,,,,,,,,,,,,,,,,,,,,,,,,,,,,,,,,,,,,,,,,,,,,,,,,,,,,,,,,,,,,,,,,,,,,,,,,,,,,,,,,,,,,,,,,,,,,,,,,,,,,,,,,,301.9648638999997,302.0162766000003,302.47818540000026,302.47821060000024,302.9774808000002,303.3867571999999,303.2622644000003,303.26230080000005,304.5804228999996,304.5804228999996,,304.78021009999975,space,1,0.1880394999998316,None,013,001,2023-11-12_14h41.35.298,untitled,2023.2.2,60.14903728451227,2023-11-12 14h41.45.689198 +0800,
1,condition_2/blank.PNG,space,,,,,,,,,,,,,0,10,10,8,304.8349083000003,,,,,,,,,,,,,,,,,,,,,,,,,,,,,,,,,,,,,,,,,,,,,,,,,,,,,,,,,,,,,,,,,,,,,,,,,,,,,,,,,,,,,,,,,,,,,,,,,,,,,,,,,,304.7813071999999,304.8349083000003,305.29491529999996,305.29494969999996,305.7943046999999,306.2342474999996,306.07954940000036,306.0795816,307.3953770999997,307.3953770999997,,307.8962283999999,space,1,0.48898669999925914,None,013,001,2023-11-12_14h41.35.298,untitled,2023.2.2,60.14903728451227,2023-11-12 14h41.45.689198 +0800,
9,condition_2/leftstar.PNG,left,,,,,,,,,,,,,0,11,11,19,307.95750899999985,,,,,,,,,,,,,,,,,,,,,,,,,,,,,,,,,,,,,,,,,,,,,,,,,,,,,,,,,,,,,,,,,,,,,,,,,,,,,,,,,,,,,,,,,,,,,,,,,,,,,,,,,,307.8972924999998,307.95750899999985,308.4118827000002,308.41191700000036,308.91088539999964,309.4348398000002,309.19595709999976,309.1959859999997,310.51325799999995,310.51325799999995,,311.09754350000003,left,1,0.5730173000001741,None,013,001,2023-11-12_14h41.35.298,untitled,2023.2.2,60.14903728451227,2023-11-12 14h41.45.689198 +0800,
1,condition_2/rightstar.PNG,space,,,,,,,,,,,,,0,12,12,12,311.1509956,,,,,,,,,,,,,,,,,,,,,,,,,,,,,,,,,,,,,,,,,,,,,,,,,,,,,,,,,,,,,,,,,,,,,,,,,,,,,,,,,,,,,,,,,,,,,,,,,,,,,,,,,,311.09880390000035,311.1509956,311.6117299999996,311.61175600000024,312.1113283000004,312.5075805999995,312.3949789999997,312.3950070000001,313.7133272000001,313.7133272000001,314.5274287000002,314.8465391,space,1,1.1190844000002471,None,013,001,2023-11-12_14h41.35.298,untitled,2023.2.2,60.14903728451227,2023-11-12 14h41.45.689198 +0800,
9,condition_2/leftstar.PNG,left,,,,,,,,,,,,,0,13,13,3,314.8984879999998,,,,,,,,,,,,,,,,,,,,,,,,,,,,,,,,,,,,,,,,,,,,,,,,,,,,,,,,,,,,,,,,,,,,,,,,,,,,,,,,,,,,,,,,,,,,,,,,,,,,,,,,,,314.8475687,314.8984879999998,315.3617938999996,315.3618223000003,315.86087979999957,316.2890352000004,316.1451483999999,316.14519010000004,317.4633295000003,317.4633295000003,,317.7636647999998,left,1,0.2924120999996376,None,013,001,2023-11-12_14h41.35.298,untitled,2023.2.2,60.14903728451227,2023-11-12 14h41.45.689198 +0800,
2,condition_2/rightstar.PNG,space,,,,,,,,,,,,,0,14,14,13,317.82317299999977,,,,,,,,,,,,,,,,,,,,,,,,,,,,,,,,,,,,,,,,,,,,,,,,,,,,,,,,,,,,,,,,,,,,,,,,,,,,,,,,,,,,,,,,,,,,,,,,,,,,,,,,,,317.7648097000001,317.82317299999977,318.27855980000004,318.2785899999999,318.77738359999967,319.18877090000024,319.06194589999996,319.0619790999999,320.3799320999997,320.3799320999997,,320.9633520999996,space,1,0.5810849999998027,None,013,001,2023-11-12_14h41.35.298,untitled,2023.2.2,60.14903728451227,2023-11-12 14h41.45.689198 +0800,
1,condition_2/leftstar.PNG,space,,,,,,,,,,,,,0,15,15,16,321.0174427000002,,,,,,,,,,,,,,,,,,,,,,,,,,,,,,,,,,,,,,,,,,,,,,,,,,,,,,,,,,,,,,,,,,,,,,,,,,,,,,,,,,,,,,,,,,,,,,,,,,,,,,,,,,320.96442620000016,321.0174427000002,321.4785601000003,321.47858559999986,321.9777850999999,322.39782920000016,322.26193179999973,322.2619590000004,323.5798328000001,323.5798328000001,324.39431479999985,324.7623759999997,space,1,1.1795977000001585,None,013,001,2023-11-12_14h41.35.298,untitled,2023.2.2,60.14903728451227,2023-11-12 14h41.45.689198 +0800,
1,condition_2/rightstar.PNG,space,,,,,,,,,,,,,0,16,16,4,324.81472440000016,,,,,,,,,,,,,,,,,,,,,,,,,,,,,,,,,,,,,,,,,,,,,,,,,,,,,,,,,,,,,,,,,,,,,,,,,,,,,,,,,,,,,,,,,,,,,,,,,,,,,,,,,,324.76353949999975,324.81472440000016,325.27819980000004,325.27822769999966,325.7775848000001,326.2005928999997,326.0618324999996,326.06187109999973,327.3800949999995,327.3800949999995,328.19429299999956,328.91273920000003,right,0,1.5189320999998017,None,013,001,2023-11-12_14h41.35.298,untitled,2023.2.2,60.14903728451227,2023-11-12 14h41.45.689198 +0800,
9,condition_2/rightstar.PNG,right,,,,,,,,,,,,,0,17,17,7,328.9969014999997,,,,,,,,,,,,,,,,,,,,,,,,,,,,,,,,,,,,,,,,,,,,,,,,,,,,,,,,,,,,,,,,,,,,,,,,,,,,,,,,,,,,,,,,,,,,,,,,,,,,,,,,,,328.9138945000004,328.9969014999997,329.4281295999999,329.42816440000024,329.92743960000007,330.3352685,330.2123723000004,330.2124076,331.52963459999955,331.52963459999955,,331.91460989999996,right,1,0.37779150000005757,None,013,001,2023-11-12_14h41.35.298,untitled,2023.2.2,60.14903728451227,2023-11-12 14h41.45.689198 +0800,
9,condition_2/blank.PNG,space,,,,,,,,,,,,,0,18,18,11,331.9759055000004,,,,,,,,,,,,,,,,,,,,,,,,,,,,,,,,,,,,,,,,,,,,,,,,,,,,,,,,,,,,,,,,,,,,,,,,,,,,,,,,,,,,,,,,,,,,,,,,,,,,,,,,,,331.91583619999983,331.9759055000004,332.42836569999963,332.42839339999955,332.9277896000003,333.3553383999997,333.21238170000015,333.21243669999967,334.5288915000001,334.5288915000001,335.32765689999997,336.76312359999974,space,1,2.23217620000014,None,013,001,2023-11-12_14h41.35.298,untitled,2023.2.2,60.14903728451227,2023-11-12 14h41.45.689198 +0800,
2,condition_2/rightstar.PNG,space,,,,,,,,,,,,,0,19,19,21,336.8169773999998,,,,,,,,,,,,,,,,,,,,,,,,,,,,,,,,,,,,,,,,,,,,,,,,,,,,,,,,,,,,,,,,,,,,,,,,,,,,,,,,,,,,,,,,,,,,,,,,,,,,,,,,,,336.7640315999997,336.8169773999998,337.27838129999964,337.2784079000003,337.7778588000001,338.30494220000037,338.06282099999953,338.0628542000004,339.38060510000014,339.38060510000014,,340.1638288000004,space,1,0.7697037000007185,None,013,001,2023-11-12_14h41.35.298,untitled,2023.2.2,60.14903728451227,2023-11-12 14h41.45.689198 +0800,
8,condition_2/blank.PNG,space,,,,,,,,,,,,,0,20,20,24,340.23440200000005,,,,,,,,,,,,,,,,,,,,,,,,,,,,,,,,,,,,,,,,,,,,,,,,,,,,,,,,,,,,,,,,,,,,,,,,,,,,,,,,,,,,,,,,,,,,,,,,,,,,,,,,,,340.16492689999995,340.23440200000005,340.6786640999999,340.67870089999997,341.1775832000003,341.5453497999997,341.46214169999985,341.46217309999975,342.7786864999998,342.7786864999998,343.57721089999995,348.2295279,space,1,5.433599400000276,None,013,001,2023-11-12_14h41.35.298,untitled,2023.2.2,60.14903728451227,2023-11-12 14h41.45.689198 +0800,
8,condition_2/blank.PNG,space,,,,,,,,,,,,,0,21,21,10,348.28467439999986,,,,,,,,,,,,,,,,,,,,,,,,,,,,,,,,,,,,,,,,,,,,,,,,,,,,,,,,,,,,,,,,,,,,,,,,,,,,,,,,,,,,,,,,,,,,,,,,,,,,,,,,,,348.23061750000033,348.28467439999986,348.74482179999995,348.74484120000034,349.2441150000004,349.5858658999996,349.52860989999954,349.528644,350.84554240000034,350.84554240000034,351.6442433000002,352.32904320000034,space,1,1.4743766000001415,None,013,001,2023-11-12_14h41.35.298,untitled,2023.2.2,60.14903728451227,2023-11-12 14h41.45.689198 +0800,
8,condition_2/rightstar.PNG,right,,,,,,,,,,,,,0,22,22,14,352.42148220000036,,,,,,,,,,,,,,,,,,,,,,,,,,,,,,,,,,,,,,,,,,,,,,,,,,,,,,,,,,,,,,,,,,,,,,,,,,,,,,,,,,,,,,,,,,,,,,,,,,,,,,,,,,352.3301223999997,352.42148220000036,352.8449921000001,352.8450289000002,353.34441439999955,353.9920818999999,353.62902440000016,353.62905299999966,354.9460742000001,354.9460742000001,,355.37992959999974,right,1,0.4229912000000695,None,013,001,2023-11-12_14h41.35.298,untitled,2023.2.2,60.14903728451227,2023-11-12 14h41.45.689198 +0800,
2,condition_2/rightstar.PNG,space,,,,,,,,,,,,,0,23,23,5,355.45455200000015,,,,,,,,,,,,,,,,,,,,,,,,,,,,,,,,,,,,,,,,,,,,,,,,,,,,,,,,,,,,,,,,,,,,,,,,,,,,,,,,,,,,,,,,,,,,,,,,,,,,,,,,,,355.38103799999953,355.45455200000015,355.89529969999967,355.89533459999984,356.39415929999996,356.80731639999976,356.6786615000001,356.6786965000001,357.9962612999998,357.9962612999998,,358.7470387000003,right,0,0.7350188999998863,None,013,001,2023-11-12_14h41.35.298,untitled,2023.2.2,60.14903728451227,2023-11-12 14h41.45.689198 +0800,
8,condition_2/rightstar.PNG,right,,,,,,,,,,,,,0,24,24,6,358.79847880000034,,,,,,,,,,,,,,,,,,,,,,,,,,,,,,,,,,,,,,,,,,,,,,,,,,,,,,,,,,,,,,,,,,,,,,,,,,,,,,,,,,,,,,,,,,,,,,,,,,,,,,,,,,358.74826289999965,358.79847880000034,359.2622577000002,359.2622830999999,359.7609616999998,360.17844030000015,360.04533749999973,360.0453643000001,361.3627760999998,361.3627760999998,,361.8799124999996,right,1,0.5105827999996109,None,013,001,2023-11-12_14h41.35.298,untitled,2023.2.2,60.14903728451227,2023-11-12 14h41.45.689198 +0800,
1,condition_2/rightstar.PNG,space,,,,,,,,,,,,,1,0,25,12,361.93430850000004,,,,,,,,,,,,,,,,,,,,,,,,,,,,,,,,,,,,,,,,,,,,,,,,,,,,,,,,,,,,,,,,,,,,,,,,,,,,,,,,,,,,,,,,,,,,,,,,,,,,,,,,,,361.88173670000015,361.93430850000004,362.39500659999976,362.39503390000027,362.8942834999998,363.3145389000001,363.1787836000003,363.17881279999983,364.4961782999999,364.4961782999999,,364.89661909999995,space,1,0.397200100000191,None,013,001,2023-11-12_14h41.35.298,untitled,2023.2.2,60.14903728451227,2023-11-12 14h41.45.689198 +0800,
8,condition_2/rightstar.PNG,right,,,,,,,,,,,,,1,1,26,6,364.9508077999999,,,,,,,,,,,,,,,,,,,,,,,,,,,,,,,,,,,,,,,,,,,,,,,,,,,,,,,,,,,,,,,,,,,,,,,,,,,,,,,,,,,,,,,,,,,,,,,,,,,,,,,,,,364.89774450000004,364.9508077999999,365.41137079999953,365.41141640000023,365.91091080000024,366.3181940000004,366.19535579999956,366.1953884000004,367.5127376999999,367.5127376999999,,367.9800191000004,right,1,0.4519597000007707,None,013,001,2023-11-12_14h41.35.298,untitled,2023.2.2,60.14903728451227,2023-11-12 14h41.45.689198 +0800,
8,condition_2/rightstar.PNG,right,,,,,,,,,,,,,1,2,27,14,368.04203940000025,,,,,,,,,,,,,,,,,,,,,,,,,,,,,,,,,,,,,,,,,,,,,,,,,,,,,,,,,,,,,,,,,,,,,,,,,,,,,,,,,,,,,,,,,,,,,,,,,,,,,,,,,,367.98114989999976,368.04203940000025,368.49506779999956,368.49513079999997,368.9942350000001,369.4183842000002,369.27898040000036,369.2790179000003,370.59629979999954,370.59629979999954,,371.02970040000037,right,1,0.4223937000006117,None,013,001,2023-11-12_14h41.35.298,untitled,2023.2.2,60.14903728451227,2023-11-12 14h41.45.689198 +0800,
9,condition_2/blank.PNG,space,,,,,,,,,,,,,1,3,28,11,371.0858675999998,,,,,,,,,,,,,,,,,,,,,,,,,,,,,,,,,,,,,,,,,,,,,,,,,,,,,,,,,,,,,,,,,,,,,,,,,,,,,,,,,,,,,,,,,,,,,,,,,,,,,,,,,,371.03092600000036,371.0858675999998,371.5452151999998,371.5452402000001,372.0442972999999,372.47429269999975,372.3289642999998,372.3289949,373.6456012999997,373.6456012999997,374.46068039999955,374.6794342000003,space,1,1.0180350999999064,None,013,001,2023-11-12_14h41.35.298,untitled,2023.2.2,60.14903728451227,2023-11-12 14h41.45.689198 +0800,
8,condition_2/blank.PNG,space,,,,,,,,,,,,,1,4,29,24,374.73374669999976,,,,,,,,,,,,,,,,,,,,,,,,,,,,,,,,,,,,,,,,,,,,,,,,,,,,,,,,,,,,,,,,,,,,,,,,,,,,,,,,,,,,,,,,,,,,,,,,,,,,,,,,,,374.6804613000004,374.73374669999976,375.19509199999993,375.1951173999996,375.6941757000004,376.0150282000004,375.9783997000004,375.9784331999999,377.2953524000004,377.2953524000004,378.09455960000014,378.1646061000001,space,1,0.8655994000000646,None,013,001,2023-11-12_14h41.35.298,untitled,2023.2.2,60.14903728451227,2023-11-12 14h41.45.689198 +0800,
9,condition_2/rightstar.PNG,right,,,,,,,,,,,,,1,5,30,15,378.2246825000002,,,,,,,,,,,,,,,,,,,,,,,,,,,,,,,,,,,,,,,,,,,,,,,,,,,,,,,,,,,,,,,,,,,,,,,,,,,,,,,,,,,,,,,,,,,,,,,,,,,,,,,,,,378.1656498000002,378.2246825000002,378.67862630000036,378.67868650000037,379.17784289999963,379.7234391000002,379.4618203,379.46184710000034,380.7797860999999,380.7797860999999,381.5944556000004,382.59552110000004,space,0,1.8042914999996356,None,013,001,2023-11-12_14h41.35.298,untitled,2023.2.2,60.14903728451227,2023-11-12 14h41.45.689198 +0800,
1,condition_2/blank.PNG,space,,,,,,,,,,,,,1,6,31,8,382.67764369999986,,,,,,,,,,,,,,,,,,,,,,,,,,,,,,,,,,,,,,,,,,,,,,,,,,,,,,,,,,,,,,,,,,,,,,,,,,,,,,,,,,,,,,,,,,,,,,,,,,,,,,,,,,382.5965433000001,382.67764369999986,383.11148179999964,383.1115086,383.6109316000002,383.9903502999996,383.89530680000007,383.89533289999963,385.2124593999997,385.2124593999997,386.0277679000001,387.5631655999996,space,1,2.3394922000006773,None,013,001,2023-11-12_14h41.35.298,untitled,2023.2.2,60.14903728451227,2023-11-12 14h41.45.689198 +0800,
9,condition_2/leftstar.PNG,left,,,,,,,,,,,,,1,7,32,3,387.64196189999984,,,,,,,,,,,,,,,,,,,,,,,,,,,,,,,,,,,,,,,,,,,,,,,,,,,,,,,,,,,,,,,,,,,,,,,,,,,,,,,,,,,,,,,,,,,,,,,,,,,,,,,,,,387.5644804000003,387.64196189999984,388.07875220000005,388.0787868999996,388.5778448000001,389.14098639999975,388.8620371999996,388.8620645000001,390.18052979999993,390.18052979999993,,390.4968742000001,left,1,0.3117722999995749,None,013,001,2023-11-12_14h41.35.298,untitled,2023.2.2,60.14903728451227,2023-11-12 14h41.45.689198 +0800,
8,condition_2/rightstar.PNG,right,,,,,,,,,,,,,1,8,33,23,390.5951349999996,,,,,,,,,,,,,,,,,,,,,,,,,,,,,,,,,,,,,,,,,,,,,,,,,,,,,,,,,,,,,,,,,,,,,,,,,,,,,,,,,,,,,,,,,,,,,,,,,,,,,,,,,,390.4978498999999,390.5951349999996,391.01155329999983,391.01158190000024,391.51125950000005,391.95744959999956,391.7954540999999,391.7954910999997,393.1130697999997,393.1130697999997,,393.52973870000005,right,1,0.4096997000006013,None,013,001,2023-11-12_14h41.35.298,untitled,2023.2.2,60.14903728451227,2023-11-12 14h41.45.689198 +0800,
2,condition_2/leftstar.PNG,space,,,,,,,,,,,,,1,9,34,17,393.5835366000001,,,,,,,,,,,,,,,,,,,,,,,,,,,,,,,,,,,,,,,,,,,,,,,,,,,,,,,,,,,,,,,,,,,,,,,,,,,,,,,,,,,,,,,,,,,,,,,,,,,,,,,,,,393.5308382000003,393.5835366000001,394.0449937000003,394.0450229999997,394.5442173000001,394.97788610000043,394.8288742000004,394.82890210000005,396.14641120000033,396.14641120000033,396.96118260000003,397.92994420000014,space,1,1.7743780000000697,None,013,001,2023-11-12_14h41.35.298,untitled,2023.2.2,60.14903728451227,2023-11-12 14h41.45.689198 +0800,
2,condition_2/blank.PNG,space,,,,,,,,,,,,,1,10,35,9,397.98877790000006,,,,,,,,,,,,,,,,,,,,,,,,,,,,,,,,,,,,,,,,,,,,,,,,,,,,,,,,,,,,,,,,,,,,,,,,,,,,,,,,,,,,,,,,,,,,,,,,,,,,,,,,,,397.93103900000006,397.98877790000006,398.4450079999997,398.44503520000035,398.9442914000001,399.3137618999999,399.2286488999998,399.2286786000004,400.54541119999976,400.54541119999976,401.3441813999998,401.66280430000006,space,1,1.1048976000001858,None,013,001,2023-11-12_14h41.35.298,untitled,2023.2.2,60.14903728451227,2023-11-12 14h41.45.689198 +0800,
8,condition_2/leftstar.PNG,left,,,,,,,,,,,,,1,11,36,2,401.7201279000001,,,,,,,,,,,,,,,,,,,,,,,,,,,,,,,,,,,,,,,,,,,,,,,,,,,,,,,,,,,,,,,,,,,,,,,,,,,,,,,,,,,,,,,,,,,,,,,,,,,,,,,,,,401.6638941000001,401.7201279000001,402.1783513999999,402.1783937,402.6778737000004,403.2134280999999,402.9621307999996,402.9621662999998,404.28060410000035,404.28060410000035,405.0939239999998,405.1794566999997,left,1,0.8816273999991608,None,013,001,2023-11-12_14h41.35.298,untitled,2023.2.2,60.14903728451227,2023-11-12 14h41.45.689198 +0800,
1,condition_2/leftstar.PNG,space,,,,,,,,,,,,,1,12,37,0,405.2352527000003,,,,,,,,,,,,,,,,,,,,,,,,,,,,,,,,,,,,,,,,,,,,,,,,,,,,,,,,,,,,,,,,,,,,,,,,,,,,,,,,,,,,,,,,,,,,,,,,,,,,,,,,,,405.18057599999975,405.2352527000003,405.69514270000036,405.69516769999973,406.19429669999954,406.60279379999974,406.4788123999997,406.4788437999996,407.7963410000002,407.7963410000002,408.61095000000023,408.6959359000002,space,1,0.8958495999995648,None,013,001,2023-11-12_14h41.35.298,untitled,2023.2.2,60.14903728451227,2023-11-12 14h41.45.689198 +0800,
2,condition_2/rightstar.PNG,space,,,,,,,,,,,,,1,13,38,5,408.75095390000024,,,,,,,,,,,,,,,,,,,,,,,,,,,,,,,,,,,,,,,,,,,,,,,,,,,,,,,,,,,,,,,,,,,,,,,,,,,,,,,,,,,,,,,,,,,,,,,,,,,,,,,,,,408.69702289999987,408.75095390000024,409.21125269999993,409.2112708000004,409.71072920000006,410.12018199999966,409.9954061999997,409.9954914,411.31293019999976,411.31293019999976,,411.6961060000003,space,1,0.37954890000037267,None,013,001,2023-11-12_14h41.35.298,untitled,2023.2.2,60.14903728451227,2023-11-12 14h41.45.689198 +0800,
8,condition_2/leftstar.PNG,left,,,,,,,,,,,,,1,14,39,18,411.7488209000003,,,,,,,,,,,,,,,,,,,,,,,,,,,,,,,,,,,,,,,,,,,,,,,,,,,,,,,,,,,,,,,,,,,,,,,,,,,,,,,,,,,,,,,,,,,,,,,,,,,,,,,,,,411.69688159999987,411.7488209000003,412.2115506,412.2115758,412.71069290000014,413.1391050000002,412.9976009000002,412.9976507000001,414.31311189999997,414.31311189999997,,414.7795736999997,left,1,0.4537662000002456,None,013,001,2023-11-12_14h41.35.298,untitled,2023.2.2,60.14903728451227,2023-11-12 14h41.45.689198 +0800,
2,condition_2/leftstar.PNG,space,,,,,,,,,,,,,1,15,40,1,414.8344747000001,,,,,,,,,,,,,,,,,,,,,,,,,,,,,,,,,,,,,,,,,,,,,,,,,,,,,,,,,,,,,,,,,,,,,,,,,,,,,,,,,,,,,,,,,,,,,,,,,,,,,,,,,,414.78059459999986,414.8344747000001,415.29484049999974,415.2948677000004,415.7939118000004,416.2173333999999,416.0782701999997,416.07829909999964,417.39631159999954,417.39631159999954,418.21078560000024,418.77924280000025,space,1,1.3658685000000332,None,013,001,2023-11-12_14h41.35.298,untitled,2023.2.2,60.14903728451227,2023-11-12 14h41.45.689198 +0800,
9,condition_2/leftstar.PNG,left,,,,,,,,,,,,,1,16,41,20,418.83507459999964,,,,,,,,,,,,,,,,,,,,,,,,,,,,,,,,,,,,,,,,,,,,,,,,,,,,,,,,,,,,,,,,,,,,,,,,,,,,,,,,,,,,,,,,,,,,,,,,,,,,,,,,,,418.7803323999997,418.83507459999964,419.2952832000001,419.29531849999967,419.7942227000003,420.20385720000013,420.07874360000005,420.07877540000027,421.39640880000024,421.39640880000024,422.21072430000004,424.17954629999986,left,1,2.7693593000003602,None,013,001,2023-11-12_14h41.35.298,untitled,2023.2.2,60.14903728451227,2023-11-12 14h41.45.689198 +0800,
8,condition_2/blank.PNG,space,,,,,,,,,,,,,1,17,42,10,424.28301740000006,,,,,,,,,,,,,,,,,,,,,,,,,,,,,,,,,,,,,,,,,,,,,,,,,,,,,,,,,,,,,,,,,,,,,,,,,,,,,,,,,,,,,,,,,,,,,,,,,,,,,,,,,,424.1806094000003,424.28301740000006,424.69496119999985,424.69501820000005,425.1944475999999,425.6124625000002,425.47901100000036,425.4790396999997,426.79525959999955,426.79525959999955,427.59411290000025,428.18065750000005,space,1,1.3755098999999973,None,013,001,2023-11-12_14h41.35.298,untitled,2023.2.2,60.14903728451227,2023-11-12 14h41.45.689198 +0800,
1,condition_2/rightstar.PNG,space,,,,,,,,,,,,,1,18,43,4,428.2399870999998,,,,,,,,,,,,,,,,,,,,,,,,,,,,,,,,,,,,,,,,,,,,,,,,,,,,,,,,,,,,,,,,,,,,,,,,,,,,,,,,,,,,,,,,,,,,,,,,,,,,,,,,,,428.18186549999973,428.2399870999998,428.6947702999996,428.69479760000013,429.1943252000001,429.7125226999997,429.4786290000002,429.4786648999998,430.7964896000003,430.7964896000003,,431.3961841999999,space,1,0.5852021999999124,None,013,001,2023-11-12_14h41.35.298,untitled,2023.2.2,60.14903728451227,2023-11-12 14h41.45.689198 +0800,
2,condition_2/rightstar.PNG,space,,,,,,,,,,,,,1,19,44,21,431.4482011,,,,,,,,,,,,,,,,,,,,,,,,,,,,,,,,,,,,,,,,,,,,,,,,,,,,,,,,,,,,,,,,,,,,,,,,,,,,,,,,,,,,,,,,,,,,,,,,,,,,,,,,,,431.39737799999966,431.4482011,431.9115998999996,431.91163099999994,432.4108533999997,432.84921310000027,432.69581860000017,432.69584490000034,434.01355870000043,434.01355870000043,,434.5466329000001,space,1,0.5306436999999278,None,013,001,2023-11-12_14h41.35.298,untitled,2023.2.2,60.14903728451227,2023-11-12 14h41.45.689198 +0800,
1,condition_2/leftstar.PNG,space,,,,,,,,,,,,,1,20,45,22,434.60177810000005,,,,,,,,,,,,,,,,,,,,,,,,,,,,,,,,,,,,,,,,,,,,,,,,,,,,,,,,,,,,,,,,,,,,,,,,,,,,,,,,,,,,,,,,,,,,,,,,,,,,,,,,,,434.54787959999976,434.60177810000005,435.06154499999957,435.06157729999995,435.5610582999998,435.9675506000003,435.84520450000036,435.84524109999984,437.1629343000004,437.1629343000004,,437.8633683999997,space,1,0.6917230999997628,None,013,001,2023-11-12_14h41.35.298,untitled,2023.2.2,60.14903728451227,2023-11-12 14h41.45.689198 +0800,
9,condition_2/leftstar.PNG,left,,,,,,,,,,,,,1,21,46,19,437.91852389999985,,,,,,,,,,,,,,,,,,,,,,,,,,,,,,,,,,,,,,,,,,,,,,,,,,,,,,,,,,,,,,,,,,,,,,,,,,,,,,,,,,,,,,,,,,,,,,,,,,,,,,,,,,437.8644506999999,437.91852389999985,438.37809730000026,438.37812909999957,438.8773812999998,439.29516010000043,439.162096,439.1621262999997,440.4797523999996,440.4797523999996,,440.79619790000015,left,1,0.3112719000000652,None,013,001,2023-11-12_14h41.35.298,untitled,2023.2.2,60.14903728451227,2023-11-12 14h41.45.689198 +0800,
2,condition_2/rightstar.PNG,space,,,,,,,,,,,,,1,22,47,13,440.8611399000001,,,,,,,,,,,,,,,,,,,,,,,,,,,,,,,,,,,,,,,,,,,,,,,,,,,,,,,,,,,,,,,,,,,,,,,,,,,,,,,,,,,,,,,,,,,,,,,,,,,,,,,,,,440.7972931000004,440.8611399000001,441.3115619,441.3115942000004,441.81077600000026,442.25673709999955,442.0958644000002,442.0958950000004,443.41266389999964,443.41266389999964,,443.79629680000016,space,1,0.3690297000002829,None,013,001,2023-11-12_14h41.35.298,untitled,2023.2.2,60.14903728451227,2023-11-12 14h41.45.689198 +0800,
9,condition_2/rightstar.PNG,right,,,,,,,,,,,,,1,23,48,7,443.8527164999996,,,,,,,,,,,,,,,,,,,,,,,,,,,,,,,,,,,,,,,,,,,,,,,,,,,,,,,,,,,,,,,,,,,,,,,,,,,,,,,,,,,,,,,,,,,,,,,,,,,,,,,,,,443.7973718000003,443.8527164999996,444.31146420000005,444.3114907999998,444.8107861999997,445.2251243999999,445.0952089000002,445.09524039999997,446.4129192999999,446.4129192999999,,447.1629726000001,right,1,0.7407736999994086,None,013,001,2023-11-12_14h41.35.298,untitled,2023.2.2,60.14903728451227,2023-11-12 14h41.45.689198 +0800,
1,condition_2/leftstar.PNG,space,,,,,,,,,,,,,1,24,49,16,447.2191346999998,,,,,,,,,,,,,,,,,,,,,,,,,,,,,,,,,,,,,,,,,,,,,,,,,,,,,,,,,,,,,,,,,,,,,,,,,,,,,,,,,,,,,,,,,,,,,,,,,,,,,,,,,,447.16408260000026,447.2191346999998,447.6783482000001,447.67840439999964,448.1778215000004,448.5977321999999,448.4622362,448.4622903999998,449.77970670000013,449.77970670000013,,450.36210909999954,space,1,0.5796594999992521,None,013,001,2023-11-12_14h41.35.298,untitled,2023.2.2,60.14903728451227,2023-11-12 14h41.45.689198 +0800,
