stimuli,star,CorrectAns,trials_3.thisRepN,trials_3.thisTrialN,trials_3.thisN,trials_3.thisIndex,trials.thisRepN,trials.thisTrialN,trials.thisN,trials.thisIndex,trials_4.thisRepN,trials_4.thisTrialN,trials_4.thisN,trials_4.thisIndex,trials_2.thisRepN,trials_2.thisTrialN,trials_2.thisN,trials_2.thisIndex,thisRow.t,notes,routine_21.started,text_9.started,key_resp_8.started,routine_21.stopped,key_resp_8.keys,key_resp_8.rt,key_resp_8.duration,introduction.started,text_6.started,key_resp_5.started,introduction.stopped,key_resp_5.keys,key_resp_5.rt,key_resp_5.duration,routine_14.started,image_6.started,routine_14.stopped,routine_16.started,text_4.started,text_4.stopped,routine_16.stopped,routine_17.started,image_7.started,key_resp_3.started,image_7.stopped,routine_17.stopped,key_resp_3.keys,key_resp_3.rt,key_resp_3.duration,routine_20.started,text_8.started,key_resp_7.started,routine_20.stopped,key_resp_7.keys,key_resp_7.rt,key_resp_7.duration,routine_18.started,text_5.started,key_resp_4.started,routine_18.stopped,key_resp_4.keys,key_resp_4.rt,key_resp_4.duration,trial.started,image_3.started,trial.stopped,routine.started,text_3.started,text_3.stopped,routine.stopped,routine_1.started,image_2.started,key_resp.started,routine_1.stopped,key_resp.keys,key_resp.corr,key_resp.rt,key_resp.duration,image_2.stopped,routine_22.started,text_10.started,key_resp_9.started,routine_22.stopped,key_resp_9.keys,key_resp_9.rt,key_resp_9.duration,routine_19.started,text_7.started,key_resp_6.started,routine_19.stopped,key_resp_6.keys,key_resp_6.rt,key_resp_6.duration,routine_23.started,image_8.started,routine_23.stopped,routine_24.started,text_11.started,text_11.stopped,routine_24.stopped,routine_25.started,image_9.started,key_resp_10.started,routine_25.stopped,key_resp_10.keys,key_resp_10.rt,key_resp_10.duration,image_9.stopped,routine_26.started,text_12.started,key_resp_11.started,text_12.stopped,routine_26.stopped,key_resp_11.keys,key_resp_11.rt,key_resp_11.duration,routine_27.started,text_13.started,key_resp_12.started,text_13.stopped,routine_27.stopped,key_resp_12.keys,key_resp_12.rt,key_resp_12.duration,routine_10.started,image_4.started,routine_10.stopped,routine_11.started,text.started,text.stopped,routine_11.stopped,routine_12.started,image_5.started,key_resp_2.started,routine_12.stopped,key_resp_2.keys,key_resp_2.corr,key_resp_2.rt,key_resp_2.duration,image_5.stopped,participant,session,date,expName,psychopyVersion,frameRate,expStart,
,,,,,,,,,,,,,,,,,,,,,0.0029117000003680005,0.00624100000004546,0.00624100000004546,9.418878599999516,space,9.407691899999918,None,,,,,,,,,,,,,,,,,,,,,,,,,,,,,,,,,,,,,,,,,,,,,,,,,,,,,,,,,,,,,,,,,,,,,,,,,,,,,,,,,,,,,,,,,,,,,,,,,,,,,,,,,,,,,,,,,,015,001,2023-11-12_14h50.14.853,untitled,2023.2.2,59.83087009637876,2023-11-12 14h50.28.915435 +0800,
,,,,,,,,,,,,,,,,,,,,,,,,,,,,9.418926600000304,9.434128099999725,9.434128099999725,51.25242160000016,space,41.80428589999974,None,,,,,,,,,,,,,,,,,,,,,,,,,,,,,,,,,,,,,,,,,,,,,,,,,,,,,,,,,,,,,,,,,,,,,,,,,,,,,,,,,,,,,,,,,,,,,,,,,,,,,,,,,,,015,001,2023-11-12_14h50.14.853,untitled,2023.2.2,59.83087009637876,2023-11-12 14h50.28.915435 +0800,
1,test/blank.PNG,space,0,0,0,2,,,,,,,,,,,,,51.42313579999973,,,,,,,,,,,,,,,,51.26234959999965,51.42313579999973,51.76832430000013,51.768355000000156,52.26730769999995,52.63596619999953,52.55226430000039,52.55228929999976,53.86940270000014,53.86940270000014,54.667719000000034,56.98643869999978,space,3.0995147999992696,None,,,,,,,,,,,,,,,,,,,,,,,,,,,,,,,,,,,,,,,,,,,,,,,,,,,,,,,,,,,,,,,,,,,,,,,,,,,,,,,,,,,,,,,,,,,,015,001,2023-11-12_14h50.14.853,untitled,2023.2.2,59.83087009637876,2023-11-12 14h50.28.915435 +0800,
8,test/rightstar.PNG,space,0,1,1,5,,,,,,,,,,,,,57.05837619999966,,,,,,,,,,,,,,,,56.9882963,57.05837619999966,57.50166470000022,57.50168539999959,58.0010484000004,58.52473410000039,58.28524899999957,58.285274500000014,59.603014399999665,59.603014399999665,60.417316299999584,61.269230300000345,right,1.6548915000003035,None,,,,,,,,,,,,,,,,,,,,,,,,,,,,,,,,,,,,,,,,,,,,,,,,,,,,,,,,,,,,,,,,,,,,,,,,,,,,,,,,,,,,,,,,,,,,015,001,2023-11-12_14h50.14.853,untitled,2023.2.2,59.83087009637876,2023-11-12 14h50.28.915435 +0800,
2,test/leftstar.PNG,left,0,2,2,4,,,,,,,,,,,,,61.328665,,,,,,,,,,,,,,,,61.27018979999957,61.328665,61.785199799999646,61.785221199999796,62.28391569999985,62.69003619999967,62.5689124999999,62.56893839999975,63.88643789999969,63.88643789999969,,64.53830199999993,left,0.6451133000000482,None,,,,,,,,,,,,,,,,,,,,,,,,,,,,,,,,,,,,,,,,,,,,,,,,,,,,,,,,,,,,,,,,,,,,,,,,,,,,,,,,,,,,,,,,,,,,015,001,2023-11-12_14h50.14.853,untitled,2023.2.2,59.83087009637876,2023-11-12 14h50.28.915435 +0800,
9,test/rightstar.PNG,space,0,3,3,3,,,,,,,,,,,,,64.60287369999969,,,,,,,,,,,,,,,,64.53907319999962,64.60287369999969,65.05153080000036,65.05156069999975,65.55098480000015,65.9758068000001,65.83535109999957,65.83537849999993,67.15268430000015,67.15268430000015,67.96739369999977,69.71934859999965,space,2.552097099999628,None,,,,,,,,,,,,,,,,,,,,,,,,,,,,,,,,,,,,,,,,,,,,,,,,,,,,,,,,,,,,,,,,,,,,,,,,,,,,,,,,,,,,,,,,,,,,015,001,2023-11-12_14h50.14.853,untitled,2023.2.2,59.83087009637876,2023-11-12 14h50.28.915435 +0800,
1,test/leftstar.PNG,left,0,4,4,0,,,,,,,,,,,,,69.77483149999989,,,,,,,,,,,,,,,,69.72026040000037,69.77483149999989,70.2349221000004,70.23494449999998,70.73411390000001,71.1427775000002,71.01899419999972,71.01902719999998,72.33649700000024,72.33649700000024,,72.98627719999968,left,0.6369028999997681,None,,,,,,,,,,,,,,,,,,,,,,,,,,,,,,,,,,,,,,,,,,,,,,,,,,,,,,,,,,,,,,,,,,,,,,,,,,,,,,,,,,,,,,,,,,,,015,001,2023-11-12_14h50.14.853,untitled,2023.2.2,59.83087009637876,2023-11-12 14h50.28.915435 +0800,
8,test/rightstar.PNG,space,0,5,5,1,,,,,,,,,,,,,73.04575159999968,,,,,,,,,,,,,,,,72.98716739999963,73.04575159999968,73.5015586999998,73.50158180000017,74.00064899999961,74.41323560000001,74.28483159999996,74.28485619999992,75.60327839999991,75.60327839999991,76.4175994999996,78.10303680000015,space,2.4876266999999643,None,,,,,,,,,,,,,,,,,,,,,,,,,,,,,,,,,,,,,,,,,,,,,,,,,,,,,,,,,,,,,,,,,,,,,,,,,,,,,,,,,,,,,,,,,,,,015,001,2023-11-12_14h50.14.853,untitled,2023.2.2,59.83087009637876,2023-11-12 14h50.28.915435 +0800,
,,,,,,,,,,,,,,,,,,,,,,,,,,,,,,,,,,,,,,,,,,,,,,,,,,78.10373410000011,78.11738630000036,78.11738630000036,89.13584790000004,space,11.003398200000447,None,,,,,,,,,,,,,,,,,,,,,,,,,,,,,,,,,,,,,,,,,,,,,,,,,,,,,,,,,,,,,,,,,,,,,,,,,,,,,,,,,,,,,015,001,2023-11-12_14h50.14.853,untitled,2023.2.2,59.83087009637876,2023-11-12 14h50.28.915435 +0800,
,,,,,,,,,,,,,,,,,,,,,,,,,,,,,,,,,,,,,,,,,,,,,,,,,,,,,,,,,89.13590480000039,89.15068109999993,89.15068109999993,94.35288239999954,space,5.19648480000069,None,,,,,,,,,,,,,,,,,,,,,,,,,,,,,,,,,,,,,,,,,,,,,,,,,,,,,,,,,,,,,,,,,,,,,,,,,,,,,,015,001,2023-11-12_14h50.14.853,untitled,2023.2.2,59.83087009637876,2023-11-12 14h50.28.915435 +0800,
2,condition_1/leftstar.PNG,left,,,,,0,0,0,22,,,,,,,,,94.47764050000023,,,,,,,,,,,,,,,,,,,,,,,,,,,,,,,,,,,,,,,,,,,,,94.3746199999996,94.47764050000023,94.86855930000002,94.86858370000027,95.36756340000011,95.92063619999954,95.65176259999953,95.65180220000002,96.97424070000034,96.97424070000034,97.41979100000026,left,1,0.43629839999994147,None,,,,,,,,,,,,,,,,,,,,,,,,,,,,,,,,,,,,,,,,,,,,,,,,,,,,,,,,,,,,,,,015,001,2023-11-12_14h50.14.853,untitled,2023.2.2,59.83087009637876,2023-11-12 14h50.28.915435 +0800,
9,condition_1/rightstar.PNG,space,,,,,0,1,1,7,,,,,,,,,97.47897610000018,,,,,,,,,,,,,,,,,,,,,,,,,,,,,,,,,,,,,,,,,,,,,97.42140949999975,97.47897610000018,97.93485839999994,97.93488999999954,98.43410390000008,98.84165120000034,98.71863800000028,98.71866500000033,100.03636579999966,100.03636579999966,100.18723109999974,space,1,0.13388380000014877,None,,,,,,,,,,,,,,,,,,,,,,,,,,,,,,,,,,,,,,,,,,,,,,,,,,,,,,,,,,,,,,,015,001,2023-11-12_14h50.14.853,untitled,2023.2.2,59.83087009637876,2023-11-12 14h50.28.915435 +0800,
9,condition_1/leftstar.PNG,space,,,,,0,2,2,24,,,,,,,,,100.24491860000035,,,,,,,,,,,,,,,,,,,,,,,,,,,,,,,,,,,,,,,,,,,,,100.1888444999995,100.24491860000035,100.70150149999972,100.70152890000008,101.2009879999996,101.60625900000014,101.48536309999963,101.48539110000002,102.80268379999961,102.80268379999961,103.08642599999985,space,1,0.27046470000004774,None,,,,,,,,,,,,,,,,,,,,,,,,,,,,,,,,,,,,,,,,,,,,,,,,,,,,,,,,,,,,,,,015,001,2023-11-12_14h50.14.853,untitled,2023.2.2,59.83087009637876,2023-11-12 14h50.28.915435 +0800,
8,condition_1/rightstar.PNG,space,,,,,0,3,3,6,,,,,,,,,103.1423377000001,,,,,,,,,,,,,,,,,,,,,,,,,,,,,,,,,,,,,,,,,,,,,103.08750129999953,103.1423377000001,103.60159709999971,103.60164939999959,104.10066449999977,104.51738370000021,104.38499299999967,104.38501879999967,105.70346119999977,105.70346119999977,106.15350779999972,space,1,0.44809410000016214,None,,,,,,,,,,,,,,,,,,,,,,,,,,,,,,,,,,,,,,,,,,,,,,,,,,,,,,,,,,,,,,,015,001,2023-11-12_14h50.14.853,untitled,2023.2.2,59.83087009637876,2023-11-12 14h50.28.915435 +0800,
9,condition_1/leftstar.PNG,space,,,,,0,4,4,19,,,,,,,,,106.21020950000002,,,,,,,,,,,,,,,,,,,,,,,,,,,,,,,,,,,,,,,,,,,,,106.15458690000014,106.21020950000002,106.66825580000022,106.66827809999995,107.16723000000002,107.58986619999996,107.45190439999988,107.4519363999998,108.76966470000025,108.76966470000025,109.90218449999975,space,1,1.1266007999993235,None,109.58389679999982,,,,,,,,,,,,,,,,,,,,,,,,,,,,,,,,,,,,,,,,,,,,,,,,,,,,,,,,,,,,,,015,001,2023-11-12_14h50.14.853,untitled,2023.2.2,59.83087009637876,2023-11-12 14h50.28.915435 +0800,
2,condition_1/leftstar.PNG,left,,,,,0,5,5,17,,,,,,,,,109.96223219999956,,,,,,,,,,,,,,,,,,,,,,,,,,,,,,,,,,,,,,,,,,,,,109.90318810000008,109.96223219999956,110.41847510000025,110.41849970000021,110.91760460000023,111.33314710000013,111.20250599999963,111.20253049999974,112.51957709999988,112.51957709999988,112.83653729999969,left,1,0.30027960000006715,None,,,,,,,,,,,,,,,,,,,,,,,,,,,,,,,,,,,,,,,,,,,,,,,,,,,,,,,,,,,,,,,015,001,2023-11-12_14h50.14.853,untitled,2023.2.2,59.83087009637876,2023-11-12 14h50.28.915435 +0800,
1,condition_1/leftstar.PNG,left,,,,,0,6,6,16,,,,,,,,,112.89689710000039,,,,,,,,,,,,,,,,,,,,,,,,,,,,,,,,,,,,,,,,,,,,,112.83760150000035,112.89689710000039,113.35150489999978,113.35152610000023,113.85084800000004,114.2647149000004,114.13560059999963,114.13563340000019,115.45269399999961,115.45269399999961,115.80363589999979,left,1,0.33909330000005866,None,,,,,,,,,,,,,,,,,,,,,,,,,,,,,,,,,,,,,,,,,,,,,,,,,,,,,,,,,,,,,,,015,001,2023-11-12_14h50.14.853,untitled,2023.2.2,59.83087009637876,2023-11-12 14h50.28.915435 +0800,
2,condition_1/rightstar.PNG,left,,,,,0,7,7,5,,,,,,,,,115.86213870000029,,,,,,,,,,,,,,,,,,,,,,,,,,,,,,,,,,,,,,,,,,,,,115.80474109999977,115.86213870000029,116.31864519999999,116.31866759999957,116.8174753000003,117.22289329999967,117.10165039999993,117.10167490000003,118.41977440000028,118.41977440000028,118.8036603999999,right,0,0.3807121999998344,None,,,,,,,,,,,,,,,,,,,,,,,,,,,,,,,,,,,,,,,,,,,,,,,,,,,,,,,,,,,,,,,015,001,2023-11-12_14h50.14.853,untitled,2023.2.2,59.83087009637876,2023-11-12 14h50.28.915435 +0800,
1,condition_1/rightstar.PNG,right,,,,,0,8,8,21,,,,,,,,,118.85872399999971,,,,,,,,,,,,,,,,,,,,,,,,,,,,,,,,,,,,,,,,,,,,,118.80473770000026,118.85872399999971,119.31844350000028,119.31846760000008,119.81755609999982,120.23589429999993,120.10179760000028,120.10182280000026,121.41963180000039,121.41963180000039,121.81963149999956,right,1,0.3909856000000218,None,,,,,,,,,,,,,,,,,,,,,,,,,,,,,,,,,,,,,,,,,,,,,,,,,,,,,,,,,,,,,,,015,001,2023-11-12_14h50.14.853,untitled,2023.2.2,59.83087009637876,2023-11-12 14h50.28.915435 +0800,
2,condition_1/blank.PNG,space,,,,,0,9,9,9,,,,,,,,,121.8777613000002,,,,,,,,,,,,,,,,,,,,,,,,,,,,,,,,,,,,,,,,,,,,,121.82071350000024,121.8777613000002,122.33508830000028,122.33511879999969,122.8340545000001,123.25097199999982,123.11905190000016,123.11908109999968,124.43533750000006,124.43533750000006,125.93714949999958,space,1,1.4861971000000267,None,125.23420110000006,,,,,,,,,,,,,,,,,,,,,,,,,,,,,,,,,,,,,,,,,,,,,,,,,,,,,,,,,,,,,,015,001,2023-11-12_14h50.14.853,untitled,2023.2.2,59.83087009637876,2023-11-12 14h50.28.915435 +0800,
9,condition_1/leftstar.PNG,space,,,,,0,10,10,3,,,,,,,,,126.01295990000017,,,,,,,,,,,,,,,,,,,,,,,,,,,,,,,,,,,,,,,,,,,,,125.93820520000008,126.01295990000017,126.45168139999987,126.45170849999977,126.95065129999966,127.46196729999974,127.23524840000027,127.23529940000026,128.55339370000002,128.55339370000002,129.25635590000002,space,1,0.7003853999995044,None,,,,,,,,,,,,,,,,,,,,,,,,,,,,,,,,,,,,,,,,,,,,,,,,,,,,,,,,,,,,,,,015,001,2023-11-12_14h50.14.853,untitled,2023.2.2,59.83087009637876,2023-11-12 14h50.28.915435 +0800,
9,condition_1/rightstar.PNG,space,,,,,0,11,11,15,,,,,,,,,129.31089239999983,,,,,,,,,,,,,,,,,,,,,,,,,,,,,,,,,,,,,,,,,,,,,129.25748779999958,129.31089239999983,129.7685478000003,129.76857029999974,130.26771569999983,130.67589820000012,130.55195139999978,130.5519766999996,131.86960739999995,131.86960739999995,133.28523880000012,space,1,1.4131254999992962,None,132.68408629999976,,,,,,,,,,,,,,,,,,,,,,,,,,,,,,,,,,,,,,,,,,,,,,,,,,,,,,,,,,,,,,015,001,2023-11-12_14h50.14.853,untitled,2023.2.2,59.83087009637876,2023-11-12 14h50.28.915435 +0800,
2,condition_1/blank.PNG,space,,,,,0,12,12,20,,,,,,,,,133.34723459999987,,,,,,,,,,,,,,,,,,,,,,,,,,,,,,,,,,,,,,,,,,,,,133.28602669999964,133.34723459999987,133.80145840000023,133.80148670000017,134.3007716000002,134.6772315999997,134.58507290000034,134.5851018000003,135.9022788000002,135.9022788000002,138.16901169999983,space,1,2.2528710999995383,None,136.71749220000038,,,,,,,,,,,,,,,,,,,,,,,,,,,,,,,,,,,,,,,,,,,,,,,,,,,,,,,,,,,,,,015,001,2023-11-12_14h50.14.853,untitled,2023.2.2,59.83087009637876,2023-11-12 14h50.28.915435 +0800,
8,condition_1/blank.PNG,space,,,,,0,13,13,10,,,,,,,,,138.22927179999988,,,,,,,,,,,,,,,,,,,,,,,,,,,,,,,,,,,,,,,,,,,,,138.1700778000004,138.22927179999988,138.6847673000002,138.6847912000003,139.18444799999997,139.50438329999997,139.4682055000003,139.46824339999966,140.78532069999983,140.78532069999983,141.80195769999955,space,1,1.0132628000001205,None,141.5842278,,,,,,,,,,,,,,,,,,,,,,,,,,,,,,,,,,,,,,,,,,,,,,,,,,,,,,,,,,,,,,015,001,2023-11-12_14h50.14.853,untitled,2023.2.2,59.83087009637876,2023-11-12 14h50.28.915435 +0800,
2,condition_1/leftstar.PNG,left,,,,,0,14,14,1,,,,,,,,,141.87147939999977,,,,,,,,,,,,,,,,,,,,,,,,,,,,,,,,,,,,,,,,,,,,,141.80302969999957,141.87147939999977,142.31839339999988,142.31842289999986,142.8175653999997,143.3973175000001,143.1023984000003,143.1024306999998,144.4195004000003,144.4195004000003,144.95491519999996,left,1,0.5309040000001914,None,,,,,,,,,,,,,,,,,,,,,,,,,,,,,,,,,,,,,,,,,,,,,,,,,,,,,,,,,,,,,,,015,001,2023-11-12_14h50.14.853,untitled,2023.2.2,59.83087009637876,2023-11-12 14h50.28.915435 +0800,
1,condition_1/rightstar.PNG,right,,,,,0,15,15,4,,,,,,,,,145.00945450000017,,,,,,,,,,,,,,,,,,,,,,,,,,,,,,,,,,,,,,,,,,,,,144.9559392000001,145.00945450000017,145.46878180000022,145.4687968999997,145.96752430000015,146.3877597999999,146.25150479999957,146.2515413000001,147.56976829999985,147.56976829999985,148.06972489999953,right,1,0.4950779999999213,None,,,,,,,,,,,,,,,,,,,,,,,,,,,,,,,,,,,,,,,,,,,,,,,,,,,,,,,,,,,,,,,015,001,2023-11-12_14h50.14.853,untitled,2023.2.2,59.83087009637876,2023-11-12 14h50.28.915435 +0800,
8,condition_1/leftstar.PNG,space,,,,,0,16,16,18,,,,,,,,,148.15070920000016,,,,,,,,,,,,,,,,,,,,,,,,,,,,,,,,,,,,,,,,,,,,,148.07083140000032,148.15070920000016,148.58454520000032,148.5845816000001,149.08411249999972,149.53259040000012,149.36891949999972,149.3689506999999,150.6864889999997,150.6864889999997,152.13586920000034,space,1,1.4419809999999416,None,151.50067899999976,,,,,,,,,,,,,,,,,,,,,,,,,,,,,,,,,,,,,,,,,,,,,,,,,,,,,,,,,,,,,,015,001,2023-11-12_14h50.14.853,untitled,2023.2.2,59.83087009637876,2023-11-12 14h50.28.915435 +0800,
8,condition_1/leftstar.PNG,space,,,,,0,17,17,2,,,,,,,,,152.19663779999973,,,,,,,,,,,,,,,,,,,,,,,,,,,,,,,,,,,,,,,,,,,,,152.1369705999996,152.19663779999973,152.6512689000001,152.65129139999954,153.15084269999988,153.57780730000013,153.43529630000012,153.43532510000023,154.7528473000002,154.7528473000002,155.5057551,space,1,0.7474849999998696,None,,,,,,,,,,,,,,,,,,,,,,,,,,,,,,,,,,,,,,,,,,,,,,,,,,,,,,,,,,,,,,,015,001,2023-11-12_14h50.14.853,untitled,2023.2.2,59.83087009637876,2023-11-12 14h50.28.915435 +0800,
9,condition_1/blank.PNG,space,,,,,0,18,18,11,,,,,,,,,155.5734384999996,,,,,,,,,,,,,,,,,,,,,,,,,,,,,,,,,,,,,,,,,,,,,155.5068556999995,155.5734384999996,156.01806359999955,156.0180862999996,156.51740580000023,156.9347643000001,156.80171820000032,156.8017437999997,158.11860929999966,158.11860929999966,159.86892720000014,space,1,1.7336678000001484,None,158.9178447000004,,,,,,,,,,,,,,,,,,,,,,,,,,,,,,,,,,,,,,,,,,,,,,,,,,,,,,,,,,,,,,015,001,2023-11-12_14h50.14.853,untitled,2023.2.2,59.83087009637876,2023-11-12 14h50.28.915435 +0800,
8,condition_1/rightstar.PNG,space,,,,,0,19,19,23,,,,,,,,,159.9363297,,,,,,,,,,,,,,,,,,,,,,,,,,,,,,,,,,,,,,,,,,,,,159.8699299,159.9363297,160.38476030000038,160.38478299999952,160.88412169999992,161.436823,161.16878110000016,161.1688068000003,162.4867505000002,162.4867505000002,163.27006700000038,space,1,0.7812178000003769,None,,,,,,,,,,,,,,,,,,,,,,,,,,,,,,,,,,,,,,,,,,,,,,,,,,,,,,,,,,,,,,,015,001,2023-11-12_14h50.14.853,untitled,2023.2.2,59.83087009637876,2023-11-12 14h50.28.915435 +0800,
1,condition_1/rightstar.PNG,right,,,,,0,20,20,12,,,,,,,,,163.3277146999999,,,,,,,,,,,,,,,,,,,,,,,,,,,,,,,,,,,,,,,,,,,,,163.27116690000003,163.3277146999999,163.78477440000006,163.7848028999997,164.28389400000015,164.70174279999992,164.56856640000024,164.56859319999967,165.886477,165.886477,166.4702981999999,right,1,0.5690461000003779,None,,,,,,,,,,,,,,,,,,,,,,,,,,,,,,,,,,,,,,,,,,,,,,,,,,,,,,,,,,,,,,,015,001,2023-11-12_14h50.14.853,untitled,2023.2.2,59.83087009637876,2023-11-12 14h50.28.915435 +0800,
1,condition_1/leftstar.PNG,left,,,,,0,21,21,0,,,,,,,,,166.53335349999998,,,,,,,,,,,,,,,,,,,,,,,,,,,,,,,,,,,,,,,,,,,,,166.47179659999983,166.53335349999998,166.9846507000002,166.98468520000006,167.48423569999977,167.91884599999958,167.76916660000006,167.76920080000036,169.08592390000013,169.08592390000013,169.53619960000015,left,1,0.4381352999998853,None,,,,,,,,,,,,,,,,,,,,,,,,,,,,,,,,,,,,,,,,,,,,,,,,,,,,,,,,,,,,,,,015,001,2023-11-12_14h50.14.853,untitled,2023.2.2,59.83087009637876,2023-11-12 14h50.28.915435 +0800,
8,condition_1/rightstar.PNG,space,,,,,0,22,22,14,,,,,,,,,169.59186150000005,,,,,,,,,,,,,,,,,,,,,,,,,,,,,,,,,,,,,,,,,,,,,169.5372822999998,169.59186150000005,170.05133639999985,170.05136680000032,170.55069939999976,170.95583609999994,170.83546899999965,170.83549800000037,172.15311980000024,172.15311980000024,172.50309310000011,space,1,0.3422026999996888,None,,,,,,,,,,,,,,,,,,,,,,,,,,,,,,,,,,,,,,,,,,,,,,,,,,,,,,,,,,,,,,,015,001,2023-11-12_14h50.14.853,untitled,2023.2.2,59.83087009637876,2023-11-12 14h50.28.915435 +0800,
1,condition_1/blank.PNG,space,,,,,0,23,23,8,,,,,,,,,172.56200059999992,,,,,,,,,,,,,,,,,,,,,,,,,,,,,,,,,,,,,,,,,,,,,172.50414910000018,172.56200059999992,173.01836960000037,173.0183976999997,173.51753240000016,173.93777390000014,173.80181379999976,173.80186690000028,175.11846700000024,175.11846700000024,177.1689650999997,space,1,2.0459657999999763,None,175.9174127999995,,,,,,,,,,,,,,,,,,,,,,,,,,,,,,,,,,,,,,,,,,,,,,,,,,,,,,,,,,,,,,015,001,2023-11-12_14h50.14.853,untitled,2023.2.2,59.83087009637876,2023-11-12 14h50.28.915435 +0800,
2,condition_1/rightstar.PNG,right,,,,,0,24,24,13,,,,,,,,,177.23282930000005,,,,,,,,,,,,,,,,,,,,,,,,,,,,,,,,,,,,,,,,,,,,,177.1701438,177.23282930000005,177.68571659999998,177.6857418999998,178.1845588999995,178.73027000000002,178.4685427000004,178.4685728000004,179.7861224999997,179.7861224999997,180.20281009999962,right,1,0.40422099999977945,None,,,,,,,,,,,,,,,,,,,,,,,,,,,,,,,,,,,,,,,,,,,,,,,,,,,,,,,,,,,,,,,015,001,2023-11-12_14h50.14.853,untitled,2023.2.2,59.83087009637876,2023-11-12 14h50.28.915435 +0800,
9,condition_1/rightstar.PNG,space,,,,,1,0,25,15,,,,,,,,,180.27060389999951,,,,,,,,,,,,,,,,,,,,,,,,,,,,,,,,,,,,,,,,,,,,,180.2039433,180.27060389999951,180.7182458999996,180.7182745,181.21744729999955,181.62904789999993,181.50153990000035,181.5015669000004,182.82000150000022,182.82000150000022,183.40303080000012,space,1,0.5704653999991933,None,,,,,,,,,,,,,,,,,,,,,,,,,,,,,,,,,,,,,,,,,,,,,,,,,,,,,,,,,,,,,,,015,001,2023-11-12_14h50.14.853,untitled,2023.2.2,59.83087009637876,2023-11-12 14h50.28.915435 +0800,
1,condition_1/leftstar.PNG,left,,,,,1,1,26,16,,,,,,,,,183.47698070000024,,,,,,,,,,,,,,,,,,,,,,,,,,,,,,,,,,,,,,,,,,,,,183.40411310000036,183.47698070000024,183.91810840000016,183.91813269999966,184.4174767000004,184.93060439999954,184.7013939999997,184.70140579999952,186.0196507999999,186.0196507999999,186.5194633000001,left,1,0.48881449999953475,None,,,,,,,,,,,,,,,,,,,,,,,,,,,,,,,,,,,,,,,,,,,,,,,,,,,,,,,,,,,,,,,015,001,2023-11-12_14h50.14.853,untitled,2023.2.2,59.83087009637876,2023-11-12 14h50.28.915435 +0800,
1,condition_1/leftstar.PNG,left,,,,,1,2,27,0,,,,,,,,,186.60357680000016,,,,,,,,,,,,,,,,,,,,,,,,,,,,,,,,,,,,,,,,,,,,,186.52063069999986,186.60357680000016,187.03491719999965,187.03498750000017,187.5340530000003,187.96621200000027,187.81906079999953,187.8190910000003,189.1370923000004,189.1370923000004,189.6693707000004,left,1,0.523320700000113,None,,,,,,,,,,,,,,,,,,,,,,,,,,,,,,,,,,,,,,,,,,,,,,,,,,,,,,,,,,,,,,,015,001,2023-11-12_14h50.14.853,untitled,2023.2.2,59.83087009637876,2023-11-12 14h50.28.915435 +0800,
2,condition_1/leftstar.PNG,left,,,,,1,3,28,17,,,,,,,,,189.73145810000005,,,,,,,,,,,,,,,,,,,,,,,,,,,,,,,,,,,,,,,,,,,,,189.67057320000004,189.73145810000005,190.18462230000023,190.1846448999995,190.68402539999988,191.10431040000003,190.96867060000022,190.96869979999974,192.28616059999968,192.28616059999968,192.75316029999976,left,1,0.4560484000003271,None,,,,,,,,,,,,,,,,,,,,,,,,,,,,,,,,,,,,,,,,,,,,,,,,,,,,,,,,,,,,,,,015,001,2023-11-12_14h50.14.853,untitled,2023.2.2,59.83087009637876,2023-11-12 14h50.28.915435 +0800,
9,condition_1/leftstar.PNG,space,,,,,1,4,29,19,,,,,,,,,192.80848249999963,,,,,,,,,,,,,,,,,,,,,,,,,,,,,,,,,,,,,,,,,,,,,192.7543144000001,192.80848249999963,193.26850509999986,193.2685338000001,193.76747139999952,194.17467620000025,194.0519046999998,194.05194459999984,195.36929859999964,195.36929859999964,195.95302830000037,space,1,0.5672465999996348,None,,,,,,,,,,,,,,,,,,,,,,,,,,,,,,,,,,,,,,,,,,,,,,,,,,,,,,,,,,,,,,,015,001,2023-11-12_14h50.14.853,untitled,2023.2.2,59.83087009637876,2023-11-12 14h50.28.915435 +0800,
9,condition_1/leftstar.PNG,space,,,,,1,5,30,3,,,,,,,,,196.00925329999973,,,,,,,,,,,,,,,,,,,,,,,,,,,,,,,,,,,,,,,,,,,,,195.95404429999962,196.00925329999973,196.46805649999988,196.4680870000002,196.9673389999998,197.38212169999952,197.25134629999957,197.25136680000014,198.56962490000024,198.56962490000024,198.97192879999966,space,1,0.39469219999955385,None,,,,,,,,,,,,,,,,,,,,,,,,,,,,,,,,,,,,,,,,,,,,,,,,,,,,,,,,,,,,,,,015,001,2023-11-12_14h50.14.853,untitled,2023.2.2,59.83087009637876,2023-11-12 14h50.28.915435 +0800,
2,condition_1/leftstar.PNG,left,,,,,1,6,31,22,,,,,,,,,199.0266762000001,,,,,,,,,,,,,,,,,,,,,,,,,,,,,,,,,,,,,,,,,,,,,198.97296910000023,199.0266762000001,199.48525160000008,199.48528179999994,199.98420739999983,200.3995643999997,200.26853589999973,200.2685717000004,201.5859387999999,201.5859387999999,201.9704568999996,left,1,0.3667304000000513,None,,,,,,,,,,,,,,,,,,,,,,,,,,,,,,,,,,,,,,,,,,,,,,,,,,,,,,,,,,,,,,,015,001,2023-11-12_14h50.14.853,untitled,2023.2.2,59.83087009637876,2023-11-12 14h50.28.915435 +0800,
1,condition_1/blank.PNG,space,,,,,1,7,32,8,,,,,,,,,202.03243949999978,,,,,,,,,,,,,,,,,,,,,,,,,,,,,,,,,,,,,,,,,,,,,201.97148279999965,202.03243949999978,202.48524240000006,202.4852651000001,202.98386200000004,203.3944545000004,203.2687589999996,203.2687844000002,204.5854717000002,204.5854717000002,206.0528349999995,space,1,1.4513617000002341,None,205.38586450000003,,,,,,,,,,,,,,,,,,,,,,,,,,,,,,,,,,,,,,,,,,,,,,,,,,,,,,,,,,,,,,015,001,2023-11-12_14h50.14.853,untitled,2023.2.2,59.83087009637876,2023-11-12 14h50.28.915435 +0800,
1,condition_1/rightstar.PNG,right,,,,,1,8,33,4,,,,,,,,,206.1106136999997,,,,,,,,,,,,,,,,,,,,,,,,,,,,,,,,,,,,,,,,,,,,,206.05398549999973,206.1106136999997,206.5692766000002,206.56929899999977,207.06747499999983,207.59395919999952,207.35192619999998,207.3519538999999,208.66954150000038,208.66954150000038,209.0544874999996,right,1,0.3812276999997266,None,,,,,,,,,,,,,,,,,,,,,,,,,,,,,,,,,,,,,,,,,,,,,,,,,,,,,,,,,,,,,,,015,001,2023-11-12_14h50.14.853,untitled,2023.2.2,59.83087009637876,2023-11-12 14h50.28.915435 +0800,
2,condition_1/rightstar.PNG,left,,,,,1,9,34,5,,,,,,,,,209.11294389999966,,,,,,,,,,,,,,,,,,,,,,,,,,,,,,,,,,,,,,,,,,,,,209.0556121999998,209.11294389999966,209.56827350000003,209.56830319999972,210.06739039999957,210.47102670000004,210.3515529999995,210.3515914999998,211.6693554000003,211.6693554000003,212.1880345999998,right,0,0.5150907000006555,None,,,,,,,,,,,,,,,,,,,,,,,,,,,,,,,,,,,,,,,,,,,,,,,,,,,,,,,,,,,,,,,015,001,2023-11-12_14h50.14.853,untitled,2023.2.2,59.83087009637876,2023-11-12 14h50.28.915435 +0800,
2,condition_1/rightstar.PNG,right,,,,,1,10,35,13,,,,,,,,,212.26028270000006,,,,,,,,,,,,,,,,,,,,,,,,,,,,,,,,,,,,,,,,,,,,,212.18906479999987,212.26028270000006,212.70154249999996,212.70156570000017,213.20070080000005,213.6283037000003,213.48518439999953,213.48521410000012,214.80286129999968,214.80286129999968,215.23527809999996,right,1,0.4219597999999678,None,,,,,,,,,,,,,,,,,,,,,,,,,,,,,,,,,,,,,,,,,,,,,,,,,,,,,,,,,,,,,,,015,001,2023-11-12_14h50.14.853,untitled,2023.2.2,59.83087009637876,2023-11-12 14h50.28.915435 +0800,
9,condition_1/leftstar.PNG,space,,,,,1,11,36,24,,,,,,,,,215.29448429999957,,,,,,,,,,,,,,,,,,,,,,,,,,,,,,,,,,,,,,,,,,,,,215.2357039999997,215.29448429999957,215.75136790000033,215.75139039999976,216.25074630000017,216.67336549999982,216.5352524,216.5352770999998,217.85276590000012,217.85276590000012,217.98625300000003,space,1,0.126499099999819,None,,,,,,,,,,,,,,,,,,,,,,,,,,,,,,,,,,,,,,,,,,,,,,,,,,,,,,,,,,,,,,,015,001,2023-11-12_14h50.14.853,untitled,2023.2.2,59.83087009637876,2023-11-12 14h50.28.915435 +0800,
8,condition_1/rightstar.PNG,space,,,,,1,12,37,23,,,,,,,,,218.0424753999996,,,,,,,,,,,,,,,,,,,,,,,,,,,,,,,,,,,,,,,,,,,,,217.98736029999964,218.0424753999996,218.50130979999994,218.50135919999957,219.000951,219.44882979999966,219.2856701999999,219.28569530000004,220.60317909999958,220.60317909999958,221.38586920000034,space,1,0.7784585999997944,None,,,,,,,,,,,,,,,,,,,,,,,,,,,,,,,,,,,,,,,,,,,,,,,,,,,,,,,,,,,,,,,015,001,2023-11-12_14h50.14.853,untitled,2023.2.2,59.83087009637876,2023-11-12 14h50.28.915435 +0800,
8,condition_1/rightstar.PNG,space,,,,,1,13,38,14,,,,,,,,,221.44346919999953,,,,,,,,,,,,,,,,,,,,,,,,,,,,,,,,,,,,,,,,,,,,,221.38690740000038,221.44346919999953,221.90108549999968,221.90110240000013,222.40057479999996,222.82134599999972,222.68525070000032,222.68527730000005,224.00256739999986,224.00256739999986,224.53883479999968,space,1,0.5315384999994421,None,,,,,,,,,,,,,,,,,,,,,,,,,,,,,,,,,,,,,,,,,,,,,,,,,,,,,,,,,,,,,,,015,001,2023-11-12_14h50.14.853,untitled,2023.2.2,59.83087009637876,2023-11-12 14h50.28.915435 +0800,
2,condition_1/blank.PNG,space,,,,,1,14,39,9,,,,,,,,,224.59694219999983,,,,,,,,,,,,,,,,,,,,,,,,,,,,,,,,,,,,,,,,,,,,,224.5399470000002,224.59694219999983,225.0513678999996,225.05138929999976,225.5508749999999,225.93158239999957,225.83525499999996,225.83528750000005,227.1521789999997,227.1521789999997,229.03614279999965,space,1,1.871502999999393,None,227.95035579999967,,,,,,,,,,,,,,,,,,,,,,,,,,,,,,,,,,,,,,,,,,,,,,,,,,,,,,,,,,,,,,015,001,2023-11-12_14h50.14.853,untitled,2023.2.2,59.83087009637876,2023-11-12 14h50.28.915435 +0800,
8,condition_1/leftstar.PNG,space,,,,,1,15,40,18,,,,,,,,,229.09581359999993,,,,,,,,,,,,,,,,,,,,,,,,,,,,,,,,,,,,,,,,,,,,,229.03716910000003,229.09581359999993,229.55236779999996,229.5524088000002,230.05080309999994,230.58563159999994,230.33556489999955,230.33559220000006,231.65265670000008,231.65265670000008,232.56935259999955,space,1,0.9116641000000527,None,232.46705050000037,,,,,,,,,,,,,,,,,,,,,,,,,,,,,,,,,,,,,,,,,,,,,,,,,,,,,,,,,,,,,,015,001,2023-11-12_14h50.14.853,untitled,2023.2.2,59.83087009637876,2023-11-12 14h50.28.915435 +0800,
8,condition_1/rightstar.PNG,space,,,,,1,16,41,6,,,,,,,,,232.6240839000002,,,,,,,,,,,,,,,,,,,,,,,,,,,,,,,,,,,,,,,,,,,,,232.5704440999998,232.6240839000002,233.08497999999963,233.0850115000003,233.58420169999954,234.00107190000017,233.86877129999993,233.86880440000004,235.18642089999958,235.18642089999958,235.65292020000015,space,1,0.4603757000004407,None,,,,,,,,,,,,,,,,,,,,,,,,,,,,,,,,,,,,,,,,,,,,,,,,,,,,,,,,,,,,,,,015,001,2023-11-12_14h50.14.853,untitled,2023.2.2,59.83087009637876,2023-11-12 14h50.28.915435 +0800,
8,condition_1/blank.PNG,space,,,,,1,17,42,10,,,,,,,,,235.7185940999998,,,,,,,,,,,,,,,,,,,,,,,,,,,,,,,,,,,,,,,,,,,,,235.65400620000037,235.7185940999998,236.16801870000018,236.16804760000014,236.66724650000015,237.04263809999975,236.9513079999997,236.95132899999953,238.26841669999976,238.26841669999976,239.61899509999967,space,1,1.3466057000005094,None,239.0672622000002,,,,,,,,,,,,,,,,,,,,,,,,,,,,,,,,,,,,,,,,,,,,,,,,,,,,,,,,,,,,,,015,001,2023-11-12_14h50.14.853,untitled,2023.2.2,59.83087009637876,2023-11-12 14h50.28.915435 +0800,
2,condition_1/blank.PNG,space,,,,,1,18,43,20,,,,,,,,,239.67814399999952,,,,,,,,,,,,,,,,,,,,,,,,,,,,,,,,,,,,,,,,,,,,,239.62007530000028,239.67814399999952,240.13473929999964,240.13476979999996,240.63400249999995,240.96143240000038,240.9183905,240.91841990000012,242.23507809999955,242.23507809999955,243.36891379999997,space,1,1.1274966999999378,None,243.03395530000034,,,,,,,,,,,,,,,,,,,,,,,,,,,,,,,,,,,,,,,,,,,,,,,,,,,,,,,,,,,,,,015,001,2023-11-12_14h50.14.853,untitled,2023.2.2,59.83087009637876,2023-11-12 14h50.28.915435 +0800,
8,condition_1/leftstar.PNG,space,,,,,1,19,44,2,,,,,,,,,243.44124310000007,,,,,,,,,,,,,,,,,,,,,,,,,,,,,,,,,,,,,,,,,,,,,243.37006829999973,243.44124310000007,243.88473520000025,243.88475730000027,244.38434059999963,244.93740939999952,244.66841289999957,244.66843919999974,245.98629849999998,245.98629849999998,246.8192750999997,space,1,0.8201803000001746,None,246.80071709999993,,,,,,,,,,,,,,,,,,,,,,,,,,,,,,,,,,,,,,,,,,,,,,,,,,,,,,,,,,,,,,015,001,2023-11-12_14h50.14.853,untitled,2023.2.2,59.83087009637876,2023-11-12 14h50.28.915435 +0800,
1,condition_1/rightstar.PNG,right,,,,,1,20,45,12,,,,,,,,,246.9021874,,,,,,,,,,,,,,,,,,,,,,,,,,,,,,,,,,,,,,,,,,,,,246.82046230000014,246.9021874,247.3358264999997,247.33585959999982,247.8343746999999,248.24199169999974,248.11856520000038,248.11858920000032,249.43624139999974,249.43624139999974,249.96962040000017,right,1,0.5260824999995748,None,,,,,,,,,,,,,,,,,,,,,,,,,,,,,,,,,,,,,,,,,,,,,,,,,,,,,,,,,,,,,,,015,001,2023-11-12_14h50.14.853,untitled,2023.2.2,59.83087009637876,2023-11-12 14h50.28.915435 +0800,
2,condition_1/leftstar.PNG,left,,,,,1,21,46,1,,,,,,,,,250.02769689999968,,,,,,,,,,,,,,,,,,,,,,,,,,,,,,,,,,,,,,,,,,,,,249.97070030000032,250.02769689999968,250.48514460000024,250.48516759999984,250.98376029999963,251.38764209999954,251.26819780000005,251.26822449999963,252.58638450000035,252.58638450000035,253.0033225999996,left,1,0.3993356999999378,None,,,,,,,,,,,,,,,,,,,,,,,,,,,,,,,,,,,,,,,,,,,,,,,,,,,,,,,,,,,,,,,015,001,2023-11-12_14h50.14.853,untitled,2023.2.2,59.83087009637876,2023-11-12 14h50.28.915435 +0800,
9,condition_1/blank.PNG,space,,,,,1,22,47,11,,,,,,,,,253.0562405999999,,,,,,,,,,,,,,,,,,,,,,,,,,,,,,,,,,,,,,,,,,,,,253.0047985000001,253.0562405999999,253.51798619999954,253.5180375,254.0173990000003,254.38862770000014,254.3013159000002,254.30133730000034,255.61841809999987,255.61841809999987,256.8355908000003,space,1,1.2019720999996935,None,256.4176653000004,,,,,,,,,,,,,,,,,,,,,,,,,,,,,,,,,,,,,,,,,,,,,,,,,,,,,,,,,,,,,,015,001,2023-11-12_14h50.14.853,untitled,2023.2.2,59.83087009637876,2023-11-12 14h50.28.915435 +0800,
1,condition_1/rightstar.PNG,right,,,,,1,23,48,21,,,,,,,,,256.90178749999995,,,,,,,,,,,,,,,,,,,,,,,,,,,,,,,,,,,,,,,,,,,,,256.83684149999954,256.90178749999995,257.35168220000014,257.35170629999993,257.8506411999997,258.3788690000001,258.1345627999999,258.13458720000017,259.45273220000036,259.45273220000036,259.80268869999963,right,1,0.3414801000008083,None,,,,,,,,,,,,,,,,,,,,,,,,,,,,,,,,,,,,,,,,,,,,,,,,,,,,,,,,,,,,,,,015,001,2023-11-12_14h50.14.853,untitled,2023.2.2,59.83087009637876,2023-11-12 14h50.28.915435 +0800,
9,condition_1/rightstar.PNG,space,,,,,1,24,49,7,,,,,,,,,259.8657675000004,,,,,,,,,,,,,,,,,,,,,,,,,,,,,,,,,,,,,,,,,,,,,259.8038628000004,259.8657675000004,260.3180500999997,260.3180851999996,260.81723839999995,261.22834409999996,261.1019258999995,261.1019546999996,262.4196326000001,262.4196326000001,262.98595190000015,space,1,0.5615960999994059,None,,,,,,,,,,,,,,,,,,,,,,,,,,,,,,,,,,,,,,,,,,,,,,,,,,,,,,,,,,,,,,,015,001,2023-11-12_14h50.14.853,untitled,2023.2.2,59.83087009637876,2023-11-12 14h50.28.915435 +0800,
,,,,,,,,,,,,,,,,,,,,,,,,,,,,,,,,,,,,,,,,,,,,,,,,,,,,,,,,,,,,,,,,,,,,,,,,,,,,,,,,262.9867248999999,263.0007720000003,263.0007720000003,268.5023213000004,space,5.488127999999961,None,,,,,,,,,,,,,,,,,,,,,,,,,,,,,,,,,,,,,,,,,,,,,,,,,,,,,,,015,001,2023-11-12_14h50.14.853,untitled,2023.2.2,59.83087009637876,2023-11-12 14h50.28.915435 +0800,
,,,,,,,,,,,,,,,,,,,,,,,,,,,,,,,,,,,,,,,,,,,,,,,,,,,,,,,,,,,,,,,,,,,,,,,,,,,,,,,,,,,,,,,268.50238009999975,268.51732960000027,268.51732960000027,278.3856853999996,space,9.863215800000035,None,,,,,,,,,,,,,,,,,,,,,,,,,,,,,,,,,,,,,,,,,,,,,,,,015,001,2023-11-12_14h50.14.853,untitled,2023.2.2,59.83087009637876,2023-11-12 14h50.28.915435 +0800,
2,test2/leftstar.PNG,space,,,,,,,,,0,0,0,4,,,,,278.5084125000003,,,,,,,,,,,,,,,,,,,,,,,,,,,,,,,,,,,,,,,,,,,,,,,,,,,,,,,,,,,,,,,,,,,,,,,,,,,278.40963360000023,278.5084125000003,278.9012935999999,278.9013205000001,279.4007380000003,279.9463427999999,279.6849565000002,279.6849861999999,281.0130306000001,281.0130306000001,281.60321339999973,space,0.5803350000005594,None,,,,,,,,,,,,,,,,,,,,,,,,,,,,,,,,,,015,001,2023-11-12_14h50.14.853,untitled,2023.2.2,59.83087009637876,2023-11-12 14h50.28.915435 +0800,
8,test2/rightstar.PNG,right,,,,,,,,,0,1,1,1,,,,,281.6592668000003,,,,,,,,,,,,,,,,,,,,,,,,,,,,,,,,,,,,,,,,,,,,,,,,,,,,,,,,,,,,,,,,,,,,,,,,,,,281.60445470000013,281.6592668000003,282.1177760999999,282.1178010000003,282.61736349999956,283.04842929999995,282.90211069999987,282.90214490000017,284.2195603,284.2195603,284.63747890000013,right,0.4144243999999162,None,,,,,,,,,,,,,,,,,,,,,,,,,,,,,,,,,,015,001,2023-11-12_14h50.14.853,untitled,2023.2.2,59.83087009637876,2023-11-12 14h50.28.915435 +0800,
1,test2/leftstar.PNG,space,,,,,,,,,0,2,2,0,,,,,284.6895298999998,,,,,,,,,,,,,,,,,,,,,,,,,,,,,,,,,,,,,,,,,,,,,,,,,,,,,,,,,,,,,,,,,,,,,,,,,,,284.63858569999957,284.6895298999998,285.1510569000002,285.1510797000001,285.6505864999999,286.05625770000006,285.9347958999997,285.9348264,287.25302680000004,287.25302680000004,287.6695413999996,space,0.4067946999994092,None,,,,,,,,,,,,,,,,,,,,,,,,,,,,,,,,,,015,001,2023-11-12_14h50.14.853,untitled,2023.2.2,59.83087009637876,2023-11-12 14h50.28.915435 +0800,
9,test2/rightstar.PNG,right,,,,,,,,,0,3,3,3,,,,,287.7273948000002,,,,,,,,,,,,,,,,,,,,,,,,,,,,,,,,,,,,,,,,,,,,,,,,,,,,,,,,,,,,,,,,,,,,,,,,,,,287.67049320000024,287.7273948000002,288.1847085999998,288.1847345999995,288.6839252,289.0903443999996,288.9685083000004,288.9685473999998,290.2863663999997,290.2863663999997,290.67024609999953,right,0.3676170999997339,None,,,,,,,,,,,,,,,,,,,,,,,,,,,,,,,,,,015,001,2023-11-12_14h50.14.853,untitled,2023.2.2,59.83087009637876,2023-11-12 14h50.28.915435 +0800,
1,test2/blank.PNG,space,,,,,,,,,0,4,4,2,,,,,290.7333391000002,,,,,,,,,,,,,,,,,,,,,,,,,,,,,,,,,,,,,,,,,,,,,,,,,,,,,,,,,,,,,,,,,,,,,,,,,,,290.6713249000004,290.7333391000002,291.18444910000017,291.184475,291.6843601999999,292.09520280000015,291.9686442000002,291.9686733999997,293.28547739999976,293.28547739999976,294.5855738,space,1.285692100000233,None,294.0840294999998,,,,,,,,,,,,,,,,,,,,,,,,,,,,,,,,,015,001,2023-11-12_14h50.14.853,untitled,2023.2.2,59.83087009637876,2023-11-12 14h50.28.915435 +0800,
8,test2/leftstar.PNG,left,,,,,,,,,0,5,5,5,,,,,294.6370602999996,,,,,,,,,,,,,,,,,,,,,,,,,,,,,,,,,,,,,,,,,,,,,,,,,,,,,,,,,,,,,,,,,,,,,,,,,,,294.58646260000023,294.6370602999996,295.10124989999986,295.1012743000001,295.6005460999995,296.1256545999995,295.88487050000003,295.8848925000002,297.2025156999998,297.2025156999998,297.5700987,space,0.36158350000005157,None,,,,,,,,,,,,,,,,,,,,,,,,,,,,,,,,,,015,001,2023-11-12_14h50.14.853,untitled,2023.2.2,59.83087009637876,2023-11-12 14h50.28.915435 +0800,
,,,,,,,,,,,,,,,,,,,,,,,,,,,,,,,,,,,,,,,,,,,,,,,,,,,,,,,,,,,,,,,,,,,,,,,,,,,,,,,,,,,,,,,,,,,,,,,,,,,,,,,,,,,,,297.5707652000001,297.5837558000003,297.5837558000003,298.5841964000001,300.8356898000002,space,3.2349601999994775,None,,,,,,,,,,,,,,,,,,,,,,,,,015,001,2023-11-12_14h50.14.853,untitled,2023.2.2,59.83087009637876,2023-11-12 14h50.28.915435 +0800,
,,,,,,,,,,,,,,,,,,,,,,,,,,,,,,,,,,,,,,,,,,,,,,,,,,,,,,,,,,,,,,,,,,,,,,,,,,,,,,,,,,,,,,,,,,,,,,,,,,,,,,,,,,,,,,,,,,,,,300.8357610000003,300.8504714999999,300.8504714999999,301.8504789999997,306.1520870000004,space,5.285847600000125,None,,,,,,,,,,,,,,,,,015,001,2023-11-12_14h50.14.853,untitled,2023.2.2,59.83087009637876,2023-11-12 14h50.28.915435 +0800,
8,condition_2/rightstar.PNG,right,,,,,,,,,,,,,0,0,0,23,306.23941749999994,,,,,,,,,,,,,,,,,,,,,,,,,,,,,,,,,,,,,,,,,,,,,,,,,,,,,,,,,,,,,,,,,,,,,,,,,,,,,,,,,,,,,,,,,,,,,,,,,,,,,,,,,,306.1712964999997,306.23941749999994,306.66824689999976,306.66827589999957,307.16715250000016,307.7720870000003,307.4528478000002,307.4528902000002,308.78156149999995,308.78156149999995,309.1361025999995,right,1,0.3461852000000363,None,,015,001,2023-11-12_14h50.14.853,untitled,2023.2.2,59.83087009637876,2023-11-12 14h50.28.915435 +0800,
9,condition_2/rightstar.PNG,right,,,,,,,,,,,,,0,1,1,15,309.1983742000002,,,,,,,,,,,,,,,,,,,,,,,,,,,,,,,,,,,,,,,,,,,,,,,,,,,,,,,,,,,,,,,,,,,,,,,,,,,,,,,,,,,,,,,,,,,,,,,,,,,,,,,,,,309.1449603000001,309.1983742000002,309.65201700000034,309.6520437999998,310.1505154999995,310.57612919999974,310.4347601999998,310.43478810000033,311.7529420000001,311.7529420000001,313.2859533999999,right,1,1.5241833000000042,None,312.56706740000027,015,001,2023-11-12_14h50.14.853,untitled,2023.2.2,59.83087009637876,2023-11-12 14h50.28.915435 +0800,
8,condition_2/rightstar.PNG,right,,,,,,,,,,,,,0,2,2,14,313.34334820000004,,,,,,,,,,,,,,,,,,,,,,,,,,,,,,,,,,,,,,,,,,,,,,,,,,,,,,,,,,,,,,,,,,,,,,,,,,,,,,,,,,,,,,,,,,,,,,,,,,,,,,,,,,313.2870675000004,313.34334820000004,313.8017238000002,313.8017569000003,314.30073340000035,314.72414500000014,314.58588659999987,314.5859167999997,315.90279009999995,315.90279009999995,316.5036167999997,right,1,0.5880519000002096,None,,015,001,2023-11-12_14h50.14.853,untitled,2023.2.2,59.83087009637876,2023-11-12 14h50.28.915435 +0800,
2,condition_2/leftstar.PNG,space,,,,,,,,,,,,,0,3,3,17,316.56377410000005,,,,,,,,,,,,,,,,,,,,,,,,,,,,,,,,,,,,,,,,,,,,,,,,,,,,,,,,,,,,,,,,,,,,,,,,,,,,,,,,,,,,,,,,,,,,,,,,,,,,,,,,,,316.5046745999998,316.56377410000005,317.0179973000004,317.01806320000014,317.51739819999966,317.93732850000015,317.8020329000001,317.8020639999995,319.1198666999999,319.1198666999999,326.28503999999975,space,1,7.15079009999954,None,319.9339530999996,015,001,2023-11-12_14h50.14.853,untitled,2023.2.2,59.83087009637876,2023-11-12 14h50.28.915435 +0800,
9,condition_2/leftstar.PNG,left,,,,,,,,,,,,,0,4,4,3,326.34959230000004,,,,,,,,,,,,,,,,,,,,,,,,,,,,,,,,,,,,,,,,,,,,,,,,,,,,,,,,,,,,,,,,,,,,,,,,,,,,,,,,,,,,,,,,,,,,,,,,,,,,,,,,,,326.2860542999997,326.34959230000004,326.80149489999985,326.8015513999999,327.3004068,327.87129110000024,327.5851125999998,327.5851448000003,328.9027329999999,328.9027329999999,329.2365737,left,1,0.32802300000003015,None,,015,001,2023-11-12_14h50.14.853,untitled,2023.2.2,59.83087009637876,2023-11-12 14h50.28.915435 +0800,
2,condition_2/leftstar.PNG,space,,,,,,,,,,,,,0,5,5,1,329.2899701999995,,,,,,,,,,,,,,,,,,,,,,,,,,,,,,,,,,,,,,,,,,,,,,,,,,,,,,,,,,,,,,,,,,,,,,,,,,,,,,,,,,,,,,,,,,,,,,,,,,,,,,,,,,329.2379463999996,329.2899701999995,329.7517574000003,329.7517846999999,330.2507228000004,330.6732794999998,330.5351442000001,330.53517680000004,331.85295190000033,331.85295190000033,333.8852815,space,1,2.0295641000002433,None,332.6672987000002,015,001,2023-11-12_14h50.14.853,untitled,2023.2.2,59.83087009637876,2023-11-12 14h50.28.915435 +0800,
2,condition_2/rightstar.PNG,space,,,,,,,,,,,,,0,6,6,5,333.9422889999996,,,,,,,,,,,,,,,,,,,,,,,,,,,,,,,,,,,,,,,,,,,,,,,,,,,,,,,,,,,,,,,,,,,,,,,,,,,,,,,,,,,,,,,,,,,,,,,,,,,,,,,,,,333.88637709999966,333.9422889999996,334.40108820000023,334.40110709999954,334.90066579999984,335.3041406000002,335.1848388999997,335.18486759999996,336.50308810000024,336.50308810000024,337.0035488000003,space,1,0.49847010000030423,None,,015,001,2023-11-12_14h50.14.853,untitled,2023.2.2,59.83087009637876,2023-11-12 14h50.28.915435 +0800,
8,condition_2/blank.PNG,space,,,,,,,,,,,,,0,7,7,24,337.0607947999997,,,,,,,,,,,,,,,,,,,,,,,,,,,,,,,,,,,,,,,,,,,,,,,,,,,,,,,,,,,,,,,,,,,,,,,,,,,,,,,,,,,,,,,,,,,,,,,,,,,,,,,,,,337.0046714,337.0607947999997,337.51768790000006,337.5177259000002,338.01740880000034,338.4420521000002,338.3020826000002,338.30211469999995,339.6184675000004,339.6184675000004,341.1867124999999,space,1,1.5521828999999343,None,340.4172451000004,015,001,2023-11-12_14h50.14.853,untitled,2023.2.2,59.83087009637876,2023-11-12 14h50.28.915435 +0800,
2,condition_2/rightstar.PNG,space,,,,,,,,,,,,,0,8,8,21,341.2380449000002,,,,,,,,,,,,,,,,,,,,,,,,,,,,,,,,,,,,,,,,,,,,,,,,,,,,,,,,,,,,,,,,,,,,,,,,,,,,,,,,,,,,,,,,,,,,,,,,,,,,,,,,,,341.18769239999983,341.2380449000002,341.7011886999999,341.7012132,342.2006015999996,342.70961329999955,342.48509939999985,342.48514840000007,343.80296089999956,343.80296089999956,344.2695811000003,space,1,0.44896890000018175,None,,015,001,2023-11-12_14h50.14.853,untitled,2023.2.2,59.83087009637876,2023-11-12 14h50.28.915435 +0800,
1,condition_2/leftstar.PNG,space,,,,,,,,,,,,,0,9,9,16,344.3244457999999,,,,,,,,,,,,,,,,,,,,,,,,,,,,,,,,,,,,,,,,,,,,,,,,,,,,,,,,,,,,,,,,,,,,,,,,,,,,,,,,,,,,,,,,,,,,,,,,,,,,,,,,,,344.27089350000006,344.3244457999999,344.78485029999956,344.7848766999996,345.2837991999995,345.72255909999967,345.56810380000024,345.5681332000004,346.8861294999997,346.8861294999997,347.2706248000004,space,1,0.3721693999996205,None,,015,001,2023-11-12_14h50.14.853,untitled,2023.2.2,59.83087009637876,2023-11-12 14h50.28.915435 +0800,
1,condition_2/blank.PNG,space,,,,,,,,,,,,,0,10,10,8,347.33321090000027,,,,,,,,,,,,,,,,,,,,,,,,,,,,,,,,,,,,,,,,,,,,,,,,,,,,,,,,,,,,,,,,,,,,,,,,,,,,,,,,,,,,,,,,,,,,,,,,,,,,,,,,,,347.27172840000003,347.33321090000027,347.7847337000003,347.7847604999997,348.2841405999998,348.65540429999965,348.5684561999997,348.56848269999955,349.8853505999996,349.8853505999996,350.6359344000002,space,1,0.7396773999998913,None,,015,001,2023-11-12_14h50.14.853,untitled,2023.2.2,59.83087009637876,2023-11-12 14h50.28.915435 +0800,
9,condition_2/leftstar.PNG,left,,,,,,,,,,,,,0,11,11,20,350.71850600000016,,,,,,,,,,,,,,,,,,,,,,,,,,,,,,,,,,,,,,,,,,,,,,,,,,,,,,,,,,,,,,,,,,,,,,,,,,,,,,,,,,,,,,,,,,,,,,,,,,,,,,,,,,350.63694659999965,350.71850600000016,351.15129979999983,351.1513273999999,351.65051159999985,352.1938763999997,351.9347872999997,351.9348153000001,353.2527565999999,353.2527565999999,353.65378129999954,left,1,0.3956445000003441,None,,015,001,2023-11-12_14h50.14.853,untitled,2023.2.2,59.83087009637876,2023-11-12 14h50.28.915435 +0800,
1,condition_2/leftstar.PNG,space,,,,,,,,,,,,,0,12,12,22,353.715193,,,,,,,,,,,,,,,,,,,,,,,,,,,,,,,,,,,,,,,,,,,,,,,,,,,,,,,,,,,,,,,,,,,,,,,,,,,,,,,,,,,,,,,,,,,,,,,,,,,,,,,,,,353.6549127999997,353.715193,354.16794560000017,354.1679703,354.6671994999997,355.0684932000004,354.95207560000017,354.9521071999998,356.2697041000001,356.2697041000001,356.7367158999996,space,1,0.4519024999999601,None,,015,001,2023-11-12_14h50.14.853,untitled,2023.2.2,59.83087009637876,2023-11-12 14h50.28.915435 +0800,
8,condition_2/rightstar.PNG,right,,,,,,,,,,,,,0,13,13,6,356.79263869999977,,,,,,,,,,,,,,,,,,,,,,,,,,,,,,,,,,,,,,,,,,,,,,,,,,,,,,,,,,,,,,,,,,,,,,,,,,,,,,,,,,,,,,,,,,,,,,,,,,,,,,,,,,356.7377379999998,356.79263869999977,357.2525058000001,357.2525335,357.7505278999997,358.1616078999996,358.0349114999999,358.03497179999977,359.3527387000004,359.3527387000004,359.8532468000003,right,1,0.4976709000002302,None,,015,001,2023-11-12_14h50.14.853,untitled,2023.2.2,59.83087009637876,2023-11-12 14h50.28.915435 +0800,
1,condition_2/rightstar.PNG,space,,,,,,,,,,,,,0,14,14,4,359.9070819999997,,,,,,,,,,,,,,,,,,,,,,,,,,,,,,,,,,,,,,,,,,,,,,,,,,,,,,,,,,,,,,,,,,,,,,,,,,,,,,,,,,,,,,,,,,,,,,,,,,,,,,,,,,359.8542379999999,359.9070819999997,360.36801130000003,360.36803770000006,360.8674197999999,361.2749246000003,361.15187289999994,361.1519053000002,362.4697084999998,362.4697084999998,363.26975479999965,space,1,0.7965585000001738,None,363.3314091000002,015,001,2023-11-12_14h50.14.853,untitled,2023.2.2,59.83087009637876,2023-11-12 14h50.28.915435 +0800,
8,condition_2/leftstar.PNG,left,,,,,,,,,,,,,0,15,15,2,363.3314091000002,,,,,,,,,,,,,,,,,,,,,,,,,,,,,,,,,,,,,,,,,,,,,,,,,,,,,,,,,,,,,,,,,,,,,,,,,,,,,,,,,,,,,,,,,,,,,,,,,,,,,,,,,,363.2708659,363.3314091000002,363.7849113000002,363.7849379999998,364.28441159999966,364.7009963999999,364.56795619999957,364.5679828000002,365.88600700000006,365.88600700000006,366.3695660000003,left,1,0.47297600000001694,None,,015,001,2023-11-12_14h50.14.853,untitled,2023.2.2,59.83087009637876,2023-11-12 14h50.28.915435 +0800,
2,condition_2/rightstar.PNG,space,,,,,,,,,,,,,0,16,16,13,366.43701599999986,,,,,,,,,,,,,,,,,,,,,,,,,,,,,,,,,,,,,,,,,,,,,,,,,,,,,,,,,,,,,,,,,,,,,,,,,,,,,,,,,,,,,,,,,,,,,,,,,,,,,,,,,,366.37063969999963,366.43701599999986,366.88450060000014,366.88452899999993,367.38404119999996,367.8090026,367.6682589000002,367.6682987000004,368.98605190000035,368.98605190000035,369.3693755000004,space,1,0.3758049999996729,None,,015,001,2023-11-12_14h50.14.853,untitled,2023.2.2,59.83087009637876,2023-11-12 14h50.28.915435 +0800,
9,condition_2/blank.PNG,space,,,,,,,,,,,,,0,17,17,11,369.4212832000003,,,,,,,,,,,,,,,,,,,,,,,,,,,,,,,,,,,,,,,,,,,,,,,,,,,,,,,,,,,,,,,,,,,,,,,,,,,,,,,,,,,,,,,,,,,,,,,,,,,,,,,,,,369.37044869999954,369.4212832000003,369.88458720000017,369.8846123000003,370.3841203000002,370.8132743999995,370.66853340000034,370.6685639999996,371.98511169999983,371.98511169999983,374.06876269999975,space,1,2.0715116999999736,None,372.7840619999997,015,001,2023-11-12_14h50.14.853,untitled,2023.2.2,59.83087009637876,2023-11-12 14h50.28.915435 +0800,
8,condition_2/leftstar.PNG,left,,,,,,,,,,,,,0,18,18,18,374.12286549999953,,,,,,,,,,,,,,,,,,,,,,,,,,,,,,,,,,,,,,,,,,,,,,,,,,,,,,,,,,,,,,,,,,,,,,,,,,,,,,,,,,,,,,,,,,,,,,,,,,,,,,,,,,374.0697842999998,374.12286549999953,374.58456939999996,374.58459539999967,375.0840804999998,375.6124388999997,375.3682362999998,375.3682656000001,376.68614100000013,376.68614100000013,377.06927710000036,left,1,0.36644319999959407,None,,015,001,2023-11-12_14h50.14.853,untitled,2023.2.2,59.83087009637876,2023-11-12 14h50.28.915435 +0800,
1,condition_2/leftstar.PNG,space,,,,,,,,,,,,,0,19,19,0,377.1214044999997,,,,,,,,,,,,,,,,,,,,,,,,,,,,,,,,,,,,,,,,,,,,,,,,,,,,,,,,,,,,,,,,,,,,,,,,,,,,,,,,,,,,,,,,,,,,,,,,,,,,,,,,,,377.0703636999997,377.1214044999997,377.58472729999994,377.5847640000002,378.08371499999976,378.48340610000014,378.3680218999998,378.3680492000003,379.6862368000002,379.6862368000002,380.21957329999987,space,1,0.5160430999994787,None,,015,001,2023-11-12_14h50.14.853,untitled,2023.2.2,59.83087009637876,2023-11-12 14h50.28.915435 +0800,
9,condition_2/leftstar.PNG,left,,,,,,,,,,,,,0,20,20,19,380.2768196999996,,,,,,,,,,,,,,,,,,,,,,,,,,,,,,,,,,,,,,,,,,,,,,,,,,,,,,,,,,,,,,,,,,,,,,,,,,,,,,,,,,,,,,,,,,,,,,,,,,,,,,,,,,380.2212827000003,380.2768196999996,380.7345720000003,380.7346281,381.2338483000003,381.6586707999995,381.51869720000013,381.5189081999997,382.8361679999998,382.8361679999998,383.2861591000001,left,1,0.43438349999996717,None,,015,001,2023-11-12_14h50.14.853,untitled,2023.2.2,59.83087009637876,2023-11-12 14h50.28.915435 +0800,
2,condition_2/blank.PNG,space,,,,,,,,,,,,,0,21,21,9,383.3513001000001,,,,,,,,,,,,,,,,,,,,,,,,,,,,,,,,,,,,,,,,,,,,,,,,,,,,,,,,,,,,,,,,,,,,,,,,,,,,,,,,,,,,,,,,,,,,,,,,,,,,,,,,,,383.2872139000001,383.3513001000001,383.80125940000016,383.8012853,384.30034760000035,384.6687585999998,384.58504900000025,384.5850782999996,385.9017031000003,385.9017031000003,386.55374180000035,space,1,0.6473771000000852,None,,015,001,2023-11-12_14h50.14.853,untitled,2023.2.2,59.83087009637876,2023-11-12 14h50.28.915435 +0800,
8,condition_2/blank.PNG,space,,,,,,,,,,,,,0,22,22,10,386.6158096999998,,,,,,,,,,,,,,,,,,,,,,,,,,,,,,,,,,,,,,,,,,,,,,,,,,,,,,,,,,,,,,,,,,,,,,,,,,,,,,,,,,,,,,,,,,,,,,,,,,,,,,,,,,386.55482120000033,386.6158096999998,387.06825879999997,387.0682923000004,387.56719710000016,387.9020574999995,387.8516303999995,387.8516615999997,389.16824710000037,389.16824710000037,391.1029545000001,space,1,1.9282223000000158,None,389.96710079999957,015,001,2023-11-12_14h50.14.853,untitled,2023.2.2,59.83087009637876,2023-11-12 14h50.28.915435 +0800,
1,condition_2/rightstar.PNG,space,,,,,,,,,,,,,0,23,23,12,391.15717979999954,,,,,,,,,,,,,,,,,,,,,,,,,,,,,,,,,,,,,,,,,,,,,,,,,,,,,,,,,,,,,,,,,,,,,,,,,,,,,,,,,,,,,,,,,,,,,,,,,,,,,,,,,,391.1045780000004,391.15717979999954,391.6180766999996,391.61810179999975,392.1171280999997,392.6905022000001,392.40158599999995,392.40161720000015,393.7193467999996,393.7193467999996,394.8024267999999,space,1,1.0723269999998593,None,394.5338896000003,015,001,2023-11-12_14h50.14.853,untitled,2023.2.2,59.83087009637876,2023-11-12 14h50.28.915435 +0800,
9,condition_2/rightstar.PNG,right,,,,,,,,,,,,,0,24,24,7,394.8612033999998,,,,,,,,,,,,,,,,,,,,,,,,,,,,,,,,,,,,,,,,,,,,,,,,,,,,,,,,,,,,,,,,,,,,,,,,,,,,,,,,,,,,,,,,,,,,,,,,,,,,,,,,,,394.8039084000002,394.8612033999998,395.31859859999986,395.31863239999984,395.81732680000005,396.2221591999996,396.10135939999964,396.10138879999977,397.4193529000004,397.4193529000004,397.9368607999995,right,1,0.49987719999990077,None,,015,001,2023-11-12_14h50.14.853,untitled,2023.2.2,59.83087009637876,2023-11-12 14h50.28.915435 +0800,
9,condition_2/leftstar.PNG,left,,,,,,,,,,,,,1,0,25,20,397.9930402,,,,,,,,,,,,,,,,,,,,,,,,,,,,,,,,,,,,,,,,,,,,,,,,,,,,,,,,,,,,,,,,,,,,,,,,,,,,,,,,,,,,,,,,,,,,,,,,,,,,,,,,,,397.93786309999996,397.9930402,398.45160399999986,398.45162170000003,398.9507238999995,399.36177580000003,399.2350620999996,399.2350942000003,400.55271660000017,400.55271660000017,401.01955110000017,left,1,0.44980130000021745,None,,015,001,2023-11-12_14h50.14.853,untitled,2023.2.2,59.83087009637876,2023-11-12 14h50.28.915435 +0800,
9,condition_2/leftstar.PNG,left,,,,,,,,,,,,,1,1,26,19,401.0790635000003,,,,,,,,,,,,,,,,,,,,,,,,,,,,,,,,,,,,,,,,,,,,,,,,,,,,,,,,,,,,,,,,,,,,,,,,,,,,,,,,,,,,,,,,,,,,,,,,,,,,,,,,,,401.0206457000004,401.0790635000003,401.5348850999999,401.5349366999999,402.0340619999997,402.4448818999999,402.31764509999994,402.31765929999983,403.6360107999999,403.6360107999999,404.1195055999997,left,1,0.4805863000001409,None,,015,001,2023-11-12_14h50.14.853,untitled,2023.2.2,59.83087009637876,2023-11-12 14h50.28.915435 +0800,
8,condition_2/rightstar.PNG,right,,,,,,,,,,,,,1,2,27,14,404.1710327999999,,,,,,,,,,,,,,,,,,,,,,,,,,,,,,,,,,,,,,,,,,,,,,,,,,,,,,,,,,,,,,,,,,,,,,,,,,,,,,,,,,,,,,,,,,,,,,,,,,,,,,,,,,404.12062049999986,404.1710327999999,404.6348227999997,404.63484809999954,405.1337401999999,405.5412921999996,405.4182874999997,405.4183173000001,406.7359230000002,406.7359230000002,407.1195197999996,right,1,0.3770011999995404,None,,015,001,2023-11-12_14h50.14.853,untitled,2023.2.2,59.83087009637876,2023-11-12 14h50.28.915435 +0800,
9,condition_2/leftstar.PNG,left,,,,,,,,,,,,,1,3,28,3,407.17291399999976,,,,,,,,,,,,,,,,,,,,,,,,,,,,,,,,,,,,,,,,,,,,,,,,,,,,,,,,,,,,,,,,,,,,,,,,,,,,,,,,,,,,,,,,,,,,,,,,,,,,,,,,,,407.1207201999996,407.17291399999976,407.63464420000037,407.63467130000026,408.1339618000002,408.5548281000001,408.4181599000003,408.4181875000004,409.73626969999987,409.73626969999987,410.1697111000003,left,1,0.42259529999955703,None,,015,001,2023-11-12_14h50.14.853,untitled,2023.2.2,59.83087009637876,2023-11-12 14h50.28.915435 +0800,
2,condition_2/leftstar.PNG,space,,,,,,,,,,,,,1,4,29,1,410.22702219999974,,,,,,,,,,,,,,,,,,,,,,,,,,,,,,,,,,,,,,,,,,,,,,,,,,,,,,,,,,,,,,,,,,,,,,,,,,,,,,,,,,,,,,,,,,,,,,,,,,,,,,,,,,410.1707657999996,410.22702219999974,410.68460479999976,410.6846327000003,411.18382829999973,411.6127365000002,411.4685811999998,411.46861269999954,412.78635080000004,412.78635080000004,413.63567799999964,space,1,0.8420058000001518,None,413.6003823000001,015,001,2023-11-12_14h50.14.853,untitled,2023.2.2,59.83087009637876,2023-11-12 14h50.28.915435 +0800,
8,condition_2/leftstar.PNG,left,,,,,,,,,,,,,1,5,30,18,413.69463220000034,,,,,,,,,,,,,,,,,,,,,,,,,,,,,,,,,,,,,,,,,,,,,,,,,,,,,,,,,,,,,,,,,,,,,,,,,,,,,,,,,,,,,,,,,,,,,,,,,,,,,,,,,,413.6368217999998,413.69463220000034,414.15129309999975,414.1513194999998,414.65066790000037,415.05223899999964,414.9350837000002,414.9351127,416.25260979999985,416.25260979999985,416.7042113999996,left,1,0.4391542000003028,None,,015,001,2023-11-12_14h50.14.853,untitled,2023.2.2,59.83087009637876,2023-11-12 14h50.28.915435 +0800,
9,condition_2/blank.PNG,space,,,,,,,,,,,,,1,6,31,11,416.75840900000003,,,,,,,,,,,,,,,,,,,,,,,,,,,,,,,,,,,,,,,,,,,,,,,,,,,,,,,,,,,,,,,,,,,,,,,,,,,,,,,,,,,,,,,,,,,,,,,,,,,,,,,,,,416.70478749999984,416.75840900000003,417.2185854999998,417.21862820000024,417.7172211999996,418.1423898000003,418.0016278000003,418.00165600000037,419.3182993999999,419.3182993999999,420.60299750000013,space,1,1.2790254000001369,None,420.11727659999997,015,001,2023-11-12_14h50.14.853,untitled,2023.2.2,59.83087009637876,2023-11-12 14h50.28.915435 +0800,
1,condition_2/leftstar.PNG,space,,,,,,,,,,,,,1,7,32,16,420.6564863000003,,,,,,,,,,,,,,,,,,,,,,,,,,,,,,,,,,,,,,,,,,,,,,,,,,,,,,,,,,,,,,,,,,,,,,,,,,,,,,,,,,,,,,,,,,,,,,,,,,,,,,,,,,420.60455809999985,420.6564863000003,421.11786680000023,421.1178944000003,421.61713320000035,422.14659539999957,421.9015980000004,421.9016259,423.2195200999995,423.2195200999995,423.71966299999985,space,1,0.48586689999956434,None,,015,001,2023-11-12_14h50.14.853,untitled,2023.2.2,59.83087009637876,2023-11-12 14h50.28.915435 +0800,
1,condition_2/rightstar.PNG,space,,,,,,,,,,,,,1,8,33,4,423.7725419999997,,,,,,,,,,,,,,,,,,,,,,,,,,,,,,,,,,,,,,,,,,,,,,,,,,,,,,,,,,,,,,,,,,,,,,,,,,,,,,,,,,,,,,,,,,,,,,,,,,,,,,,,,,423.72071099999994,423.7725419999997,424.23438540000006,424.23442109999996,424.7337528999997,425.13661520000005,425.01839029999974,425.01842099999976,426.3361847999995,426.3361847999995,426.85272480000003,space,1,0.5092233000004853,None,,015,001,2023-11-12_14h50.14.853,untitled,2023.2.2,59.83087009637876,2023-11-12 14h50.28.915435 +0800,
1,condition_2/blank.PNG,space,,,,,,,,,,,,,1,9,34,8,426.90964090000034,,,,,,,,,,,,,,,,,,,,,,,,,,,,,,,,,,,,,,,,,,,,,,,,,,,,,,,,,,,,,,,,,,,,,,,,,,,,,,,,,,,,,,,,,,,,,,,,,,,,,,,,,,426.8537802999999,426.90964090000034,427.36815490000026,427.3681821,427.86755059999996,428.2340967,428.1514613999998,428.15149070000007,429.4686085000003,429.4686085000003,429.8693354999996,space,1,0.3910715000001801,None,,015,001,2023-11-12_14h50.14.853,untitled,2023.2.2,59.83087009637876,2023-11-12 14h50.28.915435 +0800,
1,condition_2/rightstar.PNG,space,,,,,,,,,,,,,1,10,35,12,429.9225588999998,,,,,,,,,,,,,,,,,,,,,,,,,,,,,,,,,,,,,,,,,,,,,,,,,,,,,,,,,,,,,,,,,,,,,,,,,,,,,,,,,,,,,,,,,,,,,,,,,,,,,,,,,,429.87042050000036,429.9225588999998,430.38463839999986,430.3846652000002,430.8841493,431.43866249999974,431.1683767000004,431.1684583999995,432.4866602000002,432.4866602000002,432.6895936000001,space,1,0.200912000000244,None,,015,001,2023-11-12_14h50.14.853,untitled,2023.2.2,59.83087009637876,2023-11-12 14h50.28.915435 +0800,
8,condition_2/blank.PNG,space,,,,,,,,,,,,,1,11,36,24,432.74673170000005,,,,,,,,,,,,,,,,,,,,,,,,,,,,,,,,,,,,,,,,,,,,,,,,,,,,,,,,,,,,,,,,,,,,,,,,,,,,,,,,,,,,,,,,,,,,,,,,,,,,,,,,,,432.69066099999964,432.74673170000005,433.2012383000001,433.2012629999999,433.70067540000036,434.07246120000036,433.98509490000015,433.9851255000003,435.30178259999957,435.30178259999957,436.85181889999967,space,1,1.5407437999992908,None,436.10074650000024,015,001,2023-11-12_14h50.14.853,untitled,2023.2.2,59.83087009637876,2023-11-12 14h50.28.915435 +0800,
8,condition_2/rightstar.PNG,right,,,,,,,,,,,,,1,12,37,6,436.9156438,,,,,,,,,,,,,,,,,,,,,,,,,,,,,,,,,,,,,,,,,,,,,,,,,,,,,,,,,,,,,,,,,,,,,,,,,,,,,,,,,,,,,,,,,,,,,,,,,,,,,,,,,,436.8528389000003,436.9156438,437.3679395999998,437.3679653999998,437.8671542000002,438.4159673000004,438.15162899999996,438.15166580000005,439.4696948999999,439.4696948999999,439.88602379999975,right,1,0.41155299999991257,None,,015,001,2023-11-12_14h50.14.853,untitled,2023.2.2,59.83087009637876,2023-11-12 14h50.28.915435 +0800,
8,condition_2/rightstar.PNG,right,,,,,,,,,,,,,1,13,38,23,439.94426639999983,,,,,,,,,,,,,,,,,,,,,,,,,,,,,,,,,,,,,,,,,,,,,,,,,,,,,,,,,,,,,,,,,,,,,,,,,,,,,,,,,,,,,,,,,,,,,,,,,,,,,,,,,,439.8870815999999,439.94426639999983,440.40132209999956,440.40134820000003,440.9008209000003,441.30687279999984,441.18479839999964,441.1848283999998,442.5027350999999,442.5027350999999,443.01958730000024,right,1,0.5115835999995397,None,,015,001,2023-11-12_14h50.14.853,untitled,2023.2.2,59.83087009637876,2023-11-12 14h50.28.915435 +0800,
2,condition_2/rightstar.PNG,space,,,,,,,,,,,,,1,14,39,21,443.07732550000037,,,,,,,,,,,,,,,,,,,,,,,,,,,,,,,,,,,,,,,,,,,,,,,,,,,,,,,,,,,,,,,,,,,,,,,,,,,,,,,,,,,,,,,,,,,,,,,,,,,,,,,,,,443.02079479999975,443.07732550000037,443.5350222999996,443.53505210000003,444.0338780000002,444.4648199000003,444.31983969999965,444.319888,445.63612850000027,445.63612850000027,446.0363090000001,space,1,0.38737099999980273,None,,015,001,2023-11-12_14h50.14.853,untitled,2023.2.2,59.83087009637876,2023-11-12 14h50.28.915435 +0800,
9,condition_2/rightstar.PNG,right,,,,,,,,,,,,,1,15,40,7,446.08903740000005,,,,,,,,,,,,,,,,,,,,,,,,,,,,,,,,,,,,,,,,,,,,,,,,,,,,,,,,,,,,,,,,,,,,,,,,,,,,,,,,,,,,,,,,,,,,,,,,,,,,,,,,,,446.03741119999995,446.08903740000005,446.5512564999999,446.55128349999995,447.05072089999976,447.47370219999993,447.33492579999984,447.3349569000002,448.65261159999955,448.65261159999955,449.05279749999954,right,1,0.39532670000062353,None,,015,001,2023-11-12_14h50.14.853,untitled,2023.2.2,59.83087009637876,2023-11-12 14h50.28.915435 +0800,
2,condition_2/rightstar.PNG,space,,,,,,,,,,,,,1,16,41,13,449.12133600000016,,,,,,,,,,,,,,,,,,,,,,,,,,,,,,,,,,,,,,,,,,,,,,,,,,,,,,,,,,,,,,,,,,,,,,,,,,,,,,,,,,,,,,,,,,,,,,,,,,,,,,,,,,449.0538512000003,449.12133600000016,449.5680616999998,449.56809929999963,450.0672851999998,450.53569309999966,450.35180330000003,450.3518332000003,451.66919249999955,451.66919249999955,452.30285619999995,space,1,0.6292878000003839,None,,015,001,2023-11-12_14h50.14.853,untitled,2023.2.2,59.83087009637876,2023-11-12 14h50.28.915435 +0800,
9,condition_2/rightstar.PNG,right,,,,,,,,,,,,,1,17,42,15,452.3716879000003,,,,,,,,,,,,,,,,,,,,,,,,,,,,,,,,,,,,,,,,,,,,,,,,,,,,,,,,,,,,,,,,,,,,,,,,,,,,,,,,,,,,,,,,,,,,,,,,,,,,,,,,,,452.3039424999997,452.3716879000003,452.8176518,452.8177063000003,453.3169147999997,453.7408706999995,453.6013976000004,453.6014194999998,454.91925569999967,454.91925569999967,455.4860060000001,right,1,0.5525196999997206,None,,015,001,2023-11-12_14h50.14.853,untitled,2023.2.2,59.83087009637876,2023-11-12 14h50.28.915435 +0800,
1,condition_2/leftstar.PNG,space,,,,,,,,,,,,,1,18,43,22,455.5400931000004,,,,,,,,,,,,,,,,,,,,,,,,,,,,,,,,,,,,,,,,,,,,,,,,,,,,,,,,,,,,,,,,,,,,,,,,,,,,,,,,,,,,,,,,,,,,,,,,,,,,,,,,,,455.4870374000002,455.5400931000004,456.00114550000035,456.0011704999997,456.50070609999966,456.93350219999957,456.7852562999997,456.7853108999998,458.10269059999973,458.10269059999973,458.5030286000001,space,1,0.39759849999973085,None,,015,001,2023-11-12_14h50.14.853,untitled,2023.2.2,59.83087009637876,2023-11-12 14h50.28.915435 +0800,
2,condition_2/rightstar.PNG,space,,,,,,,,,,,,,1,19,44,5,458.5554621000001,,,,,,,,,,,,,,,,,,,,,,,,,,,,,,,,,,,,,,,,,,,,,,,,,,,,,,,,,,,,,,,,,,,,,,,,,,,,,,,,,,,,,,,,,,,,,,,,,,,,,,,,,,458.50411019999956,458.5554621000001,459.01781930000016,459.01785389999986,459.51708080000026,459.92128179999963,459.8012441000001,459.80127149999953,461.11912589999974,461.11912589999974,461.5199832999997,space,1,0.3989114999994854,None,,015,001,2023-11-12_14h50.14.853,untitled,2023.2.2,59.83087009637876,2023-11-12 14h50.28.915435 +0800,
2,condition_2/leftstar.PNG,space,,,,,,,,,,,,,1,20,45,17,461.57543220000025,,,,,,,,,,,,,,,,,,,,,,,,,,,,,,,,,,,,,,,,,,,,,,,,,,,,,,,,,,,,,,,,,,,,,,,,,,,,,,,,,,,,,,,,,,,,,,,,,,,,,,,,,,461.5209885000004,461.57543220000025,462.03456000000006,462.0345860999996,462.53384389999974,462.9362068999999,462.8182410999998,462.8182697000002,464.13594139999987,464.13594139999987,464.5360284999997,space,1,0.3982178999995085,None,,015,001,2023-11-12_14h50.14.853,untitled,2023.2.2,59.83087009637876,2023-11-12 14h50.28.915435 +0800,
8,condition_2/blank.PNG,space,,,,,,,,,,,,,1,21,46,10,464.58990040000026,,,,,,,,,,,,,,,,,,,,,,,,,,,,,,,,,,,,,,,,,,,,,,,,,,,,,,,,,,,,,,,,,,,,,,,,,,,,,,,,,,,,,,,,,,,,,,,,,,,,,,,,,,464.5370117000002,464.58990040000026,465.0512669999998,465.0512937000003,465.5505293999995,465.970859,465.8346652,465.8346932000004,467.1520496000003,467.1520496000003,468.1021168999996,space,1,0.9413939000005485,None,467.95028170000023,015,001,2023-11-12_14h50.14.853,untitled,2023.2.2,59.83087009637876,2023-11-12 14h50.28.915435 +0800,
1,condition_2/leftstar.PNG,space,,,,,,,,,,,,,1,22,47,0,468.1563913,,,,,,,,,,,,,,,,,,,,,,,,,,,,,,,,,,,,,,,,,,,,,,,,,,,,,,,,,,,,,,,,,,,,,,,,,,,,,,,,,,,,,,,,,,,,,,,,,,,,,,,,,,468.1041640000003,468.1563913,468.6179714,468.61799599999995,469.1170995000002,469.6435855999998,469.4015370999996,469.4015655000003,470.71939870000006,470.71939870000006,471.1196898999997,space,1,0.38518999999996595,None,,015,001,2023-11-12_14h50.14.853,untitled,2023.2.2,59.83087009637876,2023-11-12 14h50.28.915435 +0800,
2,condition_2/blank.PNG,space,,,,,,,,,,,,,1,23,48,9,471.1808122000002,,,,,,,,,,,,,,,,,,,,,,,,,,,,,,,,,,,,,,,,,,,,,,,,,,,,,,,,,,,,,,,,,,,,,,,,,,,,,,,,,,,,,,,,,,,,,,,,,,,,,,,,,,471.1206480999999,471.1808122000002,471.63437299999987,471.63439819999985,472.1339197999996,472.4992145999995,472.4179733000001,472.4180115999998,473.73529359999975,473.73529359999975,474.96880280000005,space,1,1.229270699999688,None,474.5336594999999,015,001,2023-11-12_14h50.14.853,untitled,2023.2.2,59.83087009637876,2023-11-12 14h50.28.915435 +0800,
8,condition_2/leftstar.PNG,left,,,,,,,,,,,,,1,24,49,2,475.02321089999987,,,,,,,,,,,,,,,,,,,,,,,,,,,,,,,,,,,,,,,,,,,,,,,,,,,,,,,,,,,,,,,,,,,,,,,,,,,,,,,,,,,,,,,,,,,,,,,,,,,,,,,,,,474.9698765000003,475.02321089999987,475.4845777999999,475.4846107000003,475.9837875000003,476.40032470000006,476.26879290000034,476.26883540000017,477.5858354000002,477.5858354000002,478.0206368999998,left,1,0.42599869999958173,None,,015,001,2023-11-12_14h50.14.853,untitled,2023.2.2,59.83087009637876,2023-11-12 14h50.28.915435 +0800,
