stimuli,star,CorrectAns,trials_3.thisRepN,trials_3.thisTrialN,trials_3.thisN,trials_3.thisIndex,trials.thisRepN,trials.thisTrialN,trials.thisN,trials.thisIndex,trials_4.thisRepN,trials_4.thisTrialN,trials_4.thisN,trials_4.thisIndex,trials_2.thisRepN,trials_2.thisTrialN,trials_2.thisN,trials_2.thisIndex,thisRow.t,notes,routine_21.started,text_9.started,key_resp_8.started,routine_21.stopped,key_resp_8.keys,key_resp_8.rt,key_resp_8.duration,introduction.started,text_6.started,key_resp_5.started,introduction.stopped,key_resp_5.keys,key_resp_5.rt,key_resp_5.duration,routine_14.started,image_6.started,routine_14.stopped,routine_16.started,text_4.started,text_4.stopped,routine_16.stopped,routine_17.started,image_7.started,key_resp_3.started,routine_17.stopped,key_resp_3.keys,key_resp_3.rt,key_resp_3.duration,image_7.stopped,routine_20.started,text_8.started,key_resp_7.started,routine_20.stopped,key_resp_7.keys,key_resp_7.rt,key_resp_7.duration,routine_18.started,text_5.started,key_resp_4.started,routine_18.stopped,key_resp_4.keys,key_resp_4.rt,key_resp_4.duration,trial.started,image_3.started,trial.stopped,routine.started,text_3.started,text_3.stopped,routine.stopped,routine_1.started,image_2.started,key_resp.started,image_2.stopped,routine_1.stopped,key_resp.keys,key_resp.corr,key_resp.rt,key_resp.duration,routine_22.started,text_10.started,key_resp_9.started,routine_22.stopped,key_resp_9.keys,key_resp_9.rt,key_resp_9.duration,routine_19.started,text_7.started,key_resp_6.started,routine_19.stopped,key_resp_6.keys,key_resp_6.rt,key_resp_6.duration,routine_23.started,image_8.started,routine_23.stopped,routine_24.started,text_11.started,text_11.stopped,routine_24.stopped,routine_25.started,image_9.started,key_resp_10.started,routine_25.stopped,key_resp_10.keys,key_resp_10.rt,key_resp_10.duration,image_9.stopped,routine_26.started,text_12.started,key_resp_11.started,text_12.stopped,routine_26.stopped,key_resp_11.keys,key_resp_11.rt,key_resp_11.duration,routine_27.started,text_13.started,key_resp_12.started,routine_27.stopped,key_resp_12.keys,key_resp_12.rt,key_resp_12.duration,routine_10.started,image_4.started,routine_10.stopped,routine_11.started,text.started,text.stopped,routine_11.stopped,routine_12.started,image_5.started,key_resp_2.started,routine_12.stopped,key_resp_2.keys,key_resp_2.corr,key_resp_2.rt,key_resp_2.duration,image_5.stopped,participant,session,date,expName,psychopyVersion,frameRate,expStart,
,,,,,,,,,,,,,,,,,,,,,0.0030605000001742155,0.0066094000003431574,0.0066094000003431574,5.864074100000835,space,5.845153299999765,None,,,,,,,,,,,,,,,,,,,,,,,,,,,,,,,,,,,,,,,,,,,,,,,,,,,,,,,,,,,,,,,,,,,,,,,,,,,,,,,,,,,,,,,,,,,,,,,,,,,,,,,,,,,,,,,,,016,001,2023-11-12_14h59.09.711,untitled,2023.2.2,60.11230180228108,2023-11-12 14h59.23.437665 +0800,
,,,,,,,,,,,,,,,,,,,,,,,,,,,,5.8641373000000385,5.878435800000261,5.878435800000261,59.66377040000043,space,53.77384450000045,None,,,,,,,,,,,,,,,,,,,,,,,,,,,,,,,,,,,,,,,,,,,,,,,,,,,,,,,,,,,,,,,,,,,,,,,,,,,,,,,,,,,,,,,,,,,,,,,,,,,,,,,,,,016,001,2023-11-12_14h59.09.711,untitled,2023.2.2,60.11230180228108,2023-11-12 14h59.23.437665 +0800,
2,test/leftstar.PNG,left,0,0,0,4,,,,,,,,,,,,,59.819045900000674,,,,,,,,,,,,,,,,59.671733800000766,59.819045900000674,60.17911750000076,60.17914010000004,60.67817869999999,61.193638900000224,60.962955500000135,60.96300190000056,62.287392700000055,62.287392700000055,62.84783730000072,left,0.5431426999994073,None,,,,,,,,,,,,,,,,,,,,,,,,,,,,,,,,,,,,,,,,,,,,,,,,,,,,,,,,,,,,,,,,,,,,,,,,,,,,,,,,,,,,,,,,,,,,016,001,2023-11-12_14h59.09.711,untitled,2023.2.2,60.11230180228108,2023-11-12 14h59.23.437665 +0800,
8,test/rightstar.PNG,space,0,1,1,1,,,,,,,,,,,,,62.91106900000068,,,,,,,,,,,,,,,,62.84902140000031,62.91106900000068,63.3626933000005,63.362722900000335,63.86182000000008,64.28180050000083,64.14601610000045,64.14604430000054,65.46394750000036,65.46394750000036,66.54726760000085,right,1.0758627000004708,None,66.27863640000032,,,,,,,,,,,,,,,,,,,,,,,,,,,,,,,,,,,,,,,,,,,,,,,,,,,,,,,,,,,,,,,,,,,,,,,,,,,,,,,,,,,,,,,,,,,016,001,2023-11-12_14h59.09.711,untitled,2023.2.2,60.11230180228108,2023-11-12 14h59.23.437665 +0800,
8,test/rightstar.PNG,space,0,2,2,5,,,,,,,,,,,,,66.61025060000065,,,,,,,,,,,,,,,,66.54816390000087,66.61025060000065,67.06338790000063,67.06341100000009,67.56165080000028,67.99609620000047,67.84601630000088,67.84604160000072,69.16373400000066,69.16373400000066,69.93172550000054,right,0.7563294000001406,None,,,,,,,,,,,,,,,,,,,,,,,,,,,,,,,,,,,,,,,,,,,,,,,,,,,,,,,,,,,,,,,,,,,,,,,,,,,,,,,,,,,,,,,,,,,,016,001,2023-11-12_14h59.09.711,untitled,2023.2.2,60.11230180228108,2023-11-12 14h59.23.437665 +0800,
1,test/blank.PNG,space,0,3,3,2,,,,,,,,,,,,,69.99305690000074,,,,,,,,,,,,,,,,69.93260930000088,69.99305690000074,70.44592160000047,70.44595370000025,70.94508900000073,71.36617330000081,71.23026950000076,71.23031970000011,72.54605790000005,72.54605790000005,76.62998860000062,space,4.077029000000039,None,73.34515920000013,,,,,,,,,,,,,,,,,,,,,,,,,,,,,,,,,,,,,,,,,,,,,,,,,,,,,,,,,,,,,,,,,,,,,,,,,,,,,,,,,,,,,,,,,,,016,001,2023-11-12_14h59.09.711,untitled,2023.2.2,60.11230180228108,2023-11-12 14h59.23.437665 +0800,
1,test/leftstar.PNG,left,0,4,4,0,,,,,,,,,,,,,76.69097730000067,,,,,,,,,,,,,,,,76.6308654000004,76.69097730000067,77.14642410000033,77.14645950000067,77.64524340000025,78.16361970000071,77.92959900000005,77.92965150000055,79.24799750000057,79.24799750000057,80.33017180000024,left,1.0673961000002237,None,80.06194180000057,,,,,,,,,,,,,,,,,,,,,,,,,,,,,,,,,,,,,,,,,,,,,,,,,,,,,,,,,,,,,,,,,,,,,,,,,,,,,,,,,,,,,,,,,,,016,001,2023-11-12_14h59.09.711,untitled,2023.2.2,60.11230180228108,2023-11-12 14h59.23.437665 +0800,
9,test/rightstar.PNG,space,0,5,5,3,,,,,,,,,,,,,80.44250750000083,,,,,,,,,,,,,,,,80.33110000000033,80.44250750000083,80.84598880000067,80.84601500000008,81.34498800000074,81.76688100000047,81.62912940000024,81.62916340000083,82.9469381000008,82.9469381000008,88.3468212000007,right,5.397726700000021,None,83.76145250000081,,,,,,,,,,,,,,,,,,,,,,,,,,,,,,,,,,,,,,,,,,,,,,,,,,,,,,,,,,,,,,,,,,,,,,,,,,,,,,,,,,,,,,,,,,,016,001,2023-11-12_14h59.09.711,untitled,2023.2.2,60.11230180228108,2023-11-12 14h59.23.437665 +0800,
,,,,,,,,,,,,,,,,,,,,,,,,,,,,,,,,,,,,,,,,,,,,,,,,,,88.34741930000018,88.36153620000005,88.36153620000005,115.64621540000007,space,27.27138240000022,None,,,,,,,,,,,,,,,,,,,,,,,,,,,,,,,,,,,,,,,,,,,,,,,,,,,,,,,,,,,,,,,,,,,,,,,,,,,,,,,,,,,,016,001,2023-11-12_14h59.09.711,untitled,2023.2.2,60.11230180228108,2023-11-12 14h59.23.437665 +0800,
,,,,,,,,,,,,,,,,,,,,,,,,,,,,,,,,,,,,,,,,,,,,,,,,,,,,,,,,,115.64626000000044,115.66151030000037,115.66151030000037,117.44708770000034,space,1.778895100000227,None,,,,,,,,,,,,,,,,,,,,,,,,,,,,,,,,,,,,,,,,,,,,,,,,,,,,,,,,,,,,,,,,,,,,,,,,,,,,,016,001,2023-11-12_14h59.09.711,untitled,2023.2.2,60.11230180228108,2023-11-12 14h59.23.437665 +0800,
1,condition_1/rightstar.PNG,right,,,,,0,0,0,4,,,,,,,,,117.58315530000073,,,,,,,,,,,,,,,,,,,,,,,,,,,,,,,,,,,,,,,,,,,,,117.46797070000048,117.58315530000073,117.96273980000024,117.96277200000077,118.46154260000003,119.06454160000067,118.74600500000088,118.74603360000037,120.07523530000071,120.07523530000071,120.87824620000083,121.16342870000062,right,1,1.0784505999999965,None,,,,,,,,,,,,,,,,,,,,,,,,,,,,,,,,,,,,,,,,,,,,,,,,,,,,,,,,,,,,,016,001,2023-11-12_14h59.09.711,untitled,2023.2.2,60.11230180228108,2023-11-12 14h59.23.437665 +0800,
2,condition_1/blank.PNG,space,,,,,0,1,1,9,,,,,,,,,121.22337700000026,,,,,,,,,,,,,,,,,,,,,,,,,,,,,,,,,,,,,,,,,,,,,121.16519900000003,121.22337700000026,121.67981690000033,121.67984640000032,122.17826650000006,122.5658110000004,122.46316640000077,122.46319600000061,123.77940960000069,123.77940960000069,124.57842990000063,125.51377110000067,space,1,1.7248488000004727,None,,,,,,,,,,,,,,,,,,,,,,,,,,,,,,,,,,,,,,,,,,,,,,,,,,,,,,,,,,,,,016,001,2023-11-12_14h59.09.711,untitled,2023.2.2,60.11230180228108,2023-11-12 14h59.23.437665 +0800,
8,condition_1/rightstar.PNG,space,,,,,0,2,2,23,,,,,,,,,125.57848120000017,,,,,,,,,,,,,,,,,,,,,,,,,,,,,,,,,,,,,,,,,,,,,125.51485200000025,125.57848120000017,126.02904360000048,126.02906580000035,126.52829460000066,127.05510350000077,126.81311930000084,126.81314590000056,128.13030080000044,128.13030080000044,128.92852260000018,129.2806188000004,right,0,1.1422474999999395,None,,,,,,,,,,,,,,,,,,,,,,,,,,,,,,,,,,,,,,,,,,,,,,,,,,,,,,,,,,,,,016,001,2023-11-12_14h59.09.711,untitled,2023.2.2,60.11230180228108,2023-11-12 14h59.23.437665 +0800,
9,condition_1/leftstar.PNG,space,,,,,0,3,3,24,,,,,,,,,129.34378180000022,,,,,,,,,,,,,,,,,,,,,,,,,,,,,,,,,,,,,,,,,,,,,129.28184740000052,129.34378180000022,129.79553750000014,129.7955595000003,130.29530120000072,130.72088670000085,130.5793276000004,130.57936300000074,131.89718060000087,131.89718060000087,,132.5145867000001,left,0,0.6000584999992498,None,,,,,,,,,,,,,,,,,,,,,,,,,,,,,,,,,,,,,,,,,,,,,,,,,,,,,,,,,,,,,016,001,2023-11-12_14h59.09.711,untitled,2023.2.2,60.11230180228108,2023-11-12 14h59.23.437665 +0800,
8,condition_1/rightstar.PNG,space,,,,,0,4,4,6,,,,,,,,,132.58712730000025,,,,,,,,,,,,,,,,,,,,,,,,,,,,,,,,,,,,,,,,,,,,,132.51572130000022,132.58712730000025,133.02901770000062,133.0290416000007,133.52835770000002,133.99157200000082,133.81266770000002,133.8126942000008,135.13035260000015,135.13035260000015,135.92820230000052,136.54663940000046,right,0,1.4126246999994692,None,,,,,,,,,,,,,,,,,,,,,,,,,,,,,,,,,,,,,,,,,,,,,,,,,,,,,,,,,,,,,016,001,2023-11-12_14h59.09.711,untitled,2023.2.2,60.11230180228108,2023-11-12 14h59.23.437665 +0800,
1,condition_1/leftstar.PNG,left,,,,,0,5,5,16,,,,,,,,,136.6065748000001,,,,,,,,,,,,,,,,,,,,,,,,,,,,,,,,,,,,,,,,,,,,,136.54764200000045,136.6065748000001,137.06228680000004,137.06231490000027,137.56169110000064,137.99495250000018,137.84653380000054,137.84657210000023,139.16398880000088,139.16398880000088,,139.26422140000068,space,0,0.09288659999947413,None,,,,,,,,,,,,,,,,,,,,,,,,,,,,,,,,,,,,,,,,,,,,,,,,,,,,,,,,,,,,,016,001,2023-11-12_14h59.09.711,untitled,2023.2.2,60.11230180228108,2023-11-12 14h59.23.437665 +0800,
8,condition_1/leftstar.PNG,space,,,,,0,6,6,2,,,,,,,,,139.3224682,,,,,,,,,,,,,,,,,,,,,,,,,,,,,,,,,,,,,,,,,,,,,139.2653020000007,139.3224682,139.7795442000006,139.77957520000018,140.2786797000008,140.7049136000005,140.5629142000007,140.56295190000037,141.88015970000015,141.88015970000015,,142.61411770000086,left,0,0.7220244999998613,None,,,,,,,,,,,,,,,,,,,,,,,,,,,,,,,,,,,,,,,,,,,,,,,,,,,,,,,,,,,,,016,001,2023-11-12_14h59.09.711,untitled,2023.2.2,60.11230180228108,2023-11-12 14h59.23.437665 +0800,
1,condition_1/leftstar.PNG,left,,,,,0,7,7,0,,,,,,,,,142.67439210000066,,,,,,,,,,,,,,,,,,,,,,,,,,,,,,,,,,,,,,,,,,,,,142.61517790000016,142.67439210000066,143.1294400000006,143.12946340000053,143.62820910000028,144.03873050000038,143.91323020000073,143.91326580000077,145.23084260000087,145.23084260000087,146.04493320000074,146.76317760000074,left,1,1.5216583000001265,None,,,,,,,,,,,,,,,,,,,,,,,,,,,,,,,,,,,,,,,,,,,,,,,,,,,,,,,,,,,,,016,001,2023-11-12_14h59.09.711,untitled,2023.2.2,60.11230180228108,2023-11-12 14h59.23.437665 +0800,
8,condition_1/leftstar.PNG,space,,,,,0,8,8,18,,,,,,,,,146.82210900000064,,,,,,,,,,,,,,,,,,,,,,,,,,,,,,,,,,,,,,,,,,,,,146.76423630000045,146.82210900000064,147.27887890000056,147.2788928,147.7783317000003,148.1964699,148.06292550000035,148.0629512000005,149.3803368000008,149.3803368000008,150.1947097000002,151.7299318000005,left,0,2.333565100000669,None,,,,,,,,,,,,,,,,,,,,,,,,,,,,,,,,,,,,,,,,,,,,,,,,,,,,,,,,,,,,,016,001,2023-11-12_14h59.09.711,untitled,2023.2.2,60.11230180228108,2023-11-12 14h59.23.437665 +0800,
2,condition_1/leftstar.PNG,left,,,,,0,9,9,1,,,,,,,,,151.79115690000071,,,,,,,,,,,,,,,,,,,,,,,,,,,,,,,,,,,,,,,,,,,,,151.73092820000056,151.79115690000071,152.24603450000086,152.24608530000023,152.7450830000007,153.1603167000003,153.02920840000024,153.02923520000058,154.34728390000055,154.34728390000055,,155.0306668000003,left,1,0.6673217999996268,None,,,,,,,,,,,,,,,,,,,,,,,,,,,,,,,,,,,,,,,,,,,,,,,,,,,,,,,,,,,,,016,001,2023-11-12_14h59.09.711,untitled,2023.2.2,60.11230180228108,2023-11-12 14h59.23.437665 +0800,
9,condition_1/leftstar.PNG,space,,,,,0,10,10,3,,,,,,,,,155.08501800000067,,,,,,,,,,,,,,,,,,,,,,,,,,,,,,,,,,,,,,,,,,,,,155.03146930000003,155.08501800000067,155.5458182000002,155.54583940000066,156.04501120000077,156.4590186000005,156.32941930000015,156.32944440000028,157.6475369000009,157.6475369000009,,158.26481250000052,space,1,0.6142565000000104,None,,,,,,,,,,,,,,,,,,,,,,,,,,,,,,,,,,,,,,,,,,,,,,,,,,,,,,,,,,,,,016,001,2023-11-12_14h59.09.711,untitled,2023.2.2,60.11230180228108,2023-11-12 14h59.23.437665 +0800,
1,condition_1/rightstar.PNG,right,,,,,0,11,11,12,,,,,,,,,158.32584990000032,,,,,,,,,,,,,,,,,,,,,,,,,,,,,,,,,,,,,,,,,,,,,158.2659418000003,158.32584990000032,158.77902770000037,158.77908070000012,159.2783653000006,159.68585430000076,159.56290770000032,159.56293890000052,160.88085840000076,160.88085840000076,161.69479780000074,162.13009930000044,right,1,1.2476513000001432,None,,,,,,,,,,,,,,,,,,,,,,,,,,,,,,,,,,,,,,,,,,,,,,,,,,,,,,,,,,,,,016,001,2023-11-12_14h59.09.711,untitled,2023.2.2,60.11230180228108,2023-11-12 14h59.23.437665 +0800,
1,condition_1/blank.PNG,space,,,,,0,12,12,8,,,,,,,,,162.19165770000018,,,,,,,,,,,,,,,,,,,,,,,,,,,,,,,,,,,,,,,,,,,,,162.1316093000005,162.19165770000018,162.64563940000062,162.64566060000016,163.14521720000084,163.58030230000077,163.4293600000001,163.42938740000045,164.74680230000013,164.74680230000013,165.56141500000012,165.93003350000072,space,1,1.1769506999999066,None,,,,,,,,,,,,,,,,,,,,,,,,,,,,,,,,,,,,,,,,,,,,,,,,,,,,,,,,,,,,,016,001,2023-11-12_14h59.09.711,untitled,2023.2.2,60.11230180228108,2023-11-12 14h59.23.437665 +0800,
9,condition_1/leftstar.PNG,space,,,,,0,13,13,19,,,,,,,,,165.9863051000002,,,,,,,,,,,,,,,,,,,,,,,,,,,,,,,,,,,,,,,,,,,,,165.9310789000001,165.9863051000002,166.44591370000035,166.44594490000054,166.94484940000075,167.4815518000005,167.23004870000022,167.23013320000064,168.5474546000005,168.5474546000005,,169.23127900000054,left,0,0.680532200000016,None,,,,,,,,,,,,,,,,,,,,,,,,,,,,,,,,,,,,,,,,,,,,,,,,,,,,,,,,,,,,,016,001,2023-11-12_14h59.09.711,untitled,2023.2.2,60.11230180228108,2023-11-12 14h59.23.437665 +0800,
2,condition_1/rightstar.PNG,left,,,,,0,14,14,5,,,,,,,,,169.3445246000001,,,,,,,,,,,,,,,,,,,,,,,,,,,,,,,,,,,,,,,,,,,,,169.2846743,169.3445246000001,169.7959724000002,169.7959948000007,170.2953253000005,170.7220881000003,170.5791495000003,170.57917290000023,171.8975145000004,171.8975145000004,172.7117343,172.83004380000057,right,0,0.9274943000000349,None,,,,,,,,,,,,,,,,,,,,,,,,,,,,,,,,,,,,,,,,,,,,,,,,,,,,,,,,,,,,,016,001,2023-11-12_14h59.09.711,untitled,2023.2.2,60.11230180228108,2023-11-12 14h59.23.437665 +0800,
2,condition_1/leftstar.PNG,left,,,,,0,15,15,22,,,,,,,,,172.8886691000007,,,,,,,,,,,,,,,,,,,,,,,,,,,,,,,,,,,,,,,,,,,,,172.83102040000085,172.8886691000007,173.34568900000068,173.3457111000007,173.8449786000001,174.2544622000005,174.12911210000038,174.12914160000037,175.4475265000001,175.4475265000001,,176.16411330000028,left,1,0.7078541000000769,None,,,,,,,,,,,,,,,,,,,,,,,,,,,,,,,,,,,,,,,,,,,,,,,,,,,,,,,,,,,,,016,001,2023-11-12_14h59.09.711,untitled,2023.2.2,60.11230180228108,2023-11-12 14h59.23.437665 +0800,
9,condition_1/blank.PNG,space,,,,,0,16,16,11,,,,,,,,,176.2319933000008,,,,,,,,,,,,,,,,,,,,,,,,,,,,,,,,,,,,,,,,,,,,,176.16510950000065,176.2319933000008,176.67893250000088,176.67896200000087,177.17869360000077,177.5607041000003,177.4628040000007,177.46283270000004,178.77944900000057,178.77944900000057,179.5785035000008,181.33032660000026,space,1,2.546468499999719,None,,,,,,,,,,,,,,,,,,,,,,,,,,,,,,,,,,,,,,,,,,,,,,,,,,,,,,,,,,,,,016,001,2023-11-12_14h59.09.711,untitled,2023.2.2,60.11230180228108,2023-11-12 14h59.23.437665 +0800,
2,condition_1/leftstar.PNG,left,,,,,0,17,17,17,,,,,,,,,181.39754640000046,,,,,,,,,,,,,,,,,,,,,,,,,,,,,,,,,,,,,,,,,,,,,181.33140790000016,181.39754640000046,181.8458412,181.8458980000005,182.34528750000027,182.79382780000014,182.62958620000063,182.62962080000034,183.94748040000013,183.94748040000013,,184.681106,left,1,0.7162441000000399,None,,,,,,,,,,,,,,,,,,,,,,,,,,,,,,,,,,,,,,,,,,,,,,,,,,,,,,,,,,,,,016,001,2023-11-12_14h59.09.711,untitled,2023.2.2,60.11230180228108,2023-11-12 14h59.23.437665 +0800,
9,condition_1/rightstar.PNG,space,,,,,0,18,18,15,,,,,,,,,184.74044630000026,,,,,,,,,,,,,,,,,,,,,,,,,,,,,,,,,,,,,,,,,,,,,184.68236980000074,184.74044630000026,185.1958540000005,185.19588470000053,185.69536720000087,186.10565730000053,185.97964140000022,185.97967980000067,187.29721540000082,187.29721540000082,188.11195900000075,188.1299183000001,right,0,0.8192257000000609,None,,,,,,,,,,,,,,,,,,,,,,,,,,,,,,,,,,,,,,,,,,,,,,,,,,,,,,,,,,,,,016,001,2023-11-12_14h59.09.711,untitled,2023.2.2,60.11230180228108,2023-11-12 14h59.23.437665 +0800,
2,condition_1/rightstar.PNG,right,,,,,0,19,19,13,,,,,,,,,188.19800430000032,,,,,,,,,,,,,,,,,,,,,,,,,,,,,,,,,,,,,,,,,,,,,188.1309198000008,188.19800430000032,188.64596950000032,188.64599280000039,189.14489240000057,189.58577070000047,189.4297361000008,189.4297647000003,190.74711080000088,190.74711080000088,,191.48066860000017,right,1,0.7236431000001176,None,,,,,,,,,,,,,,,,,,,,,,,,,,,,,,,,,,,,,,,,,,,,,,,,,,,,,,,,,,,,,016,001,2023-11-12_14h59.09.711,untitled,2023.2.2,60.11230180228108,2023-11-12 14h59.23.437665 +0800,
8,condition_1/blank.PNG,space,,,,,0,20,20,10,,,,,,,,,191.5508789000005,,,,,,,,,,,,,,,,,,,,,,,,,,,,,,,,,,,,,,,,,,,,,191.48170460000074,191.5508789000005,191.99635480000052,191.99637770000027,192.49507260000064,192.92009410000082,192.77895920000083,192.77899230000003,194.0963281000004,194.0963281000004,,194.8309175000004,space,1,0.7325350000000981,None,,,,,,,,,,,,,,,,,,,,,,,,,,,,,,,,,,,,,,,,,,,,,,,,,,,,,,,,,,,,,016,001,2023-11-12_14h59.09.711,untitled,2023.2.2,60.11230180228108,2023-11-12 14h59.23.437665 +0800,
2,condition_1/blank.PNG,space,,,,,0,21,21,20,,,,,,,,,194.89817180000045,,,,,,,,,,,,,,,,,,,,,,,,,,,,,,,,,,,,,,,,,,,,,194.83200690000012,194.89817180000045,195.34580330000063,195.3458580000006,195.8451397000008,196.17115110000032,196.12904610000078,196.1290753000003,197.44619600000078,197.44619600000078,198.24534360000052,199.42997090000063,space,1,1.975327300000572,None,,,,,,,,,,,,,,,,,,,,,,,,,,,,,,,,,,,,,,,,,,,,,,,,,,,,,,,,,,,,,016,001,2023-11-12_14h59.09.711,untitled,2023.2.2,60.11230180228108,2023-11-12 14h59.23.437665 +0800,
8,condition_1/rightstar.PNG,space,,,,,0,22,22,14,,,,,,,,,199.50393000000076,,,,,,,,,,,,,,,,,,,,,,,,,,,,,,,,,,,,,,,,,,,,,199.43110380000053,199.50393000000076,199.94588340000064,199.94590590000007,200.44513430000006,200.97710280000047,200.7293791000002,200.72941160000028,202.04713920000086,202.04713920000086,,202.49878630000057,right,0,0.4498476999997365,None,,,,,,,,,,,,,,,,,,,,,,,,,,,,,,,,,,,,,,,,,,,,,,,,,,,,,,,,,,,,,016,001,2023-11-12_14h59.09.711,untitled,2023.2.2,60.11230180228108,2023-11-12 14h59.23.437665 +0800,
1,condition_1/rightstar.PNG,right,,,,,0,23,23,21,,,,,,,,,202.58465550000074,,,,,,,,,,,,,,,,,,,,,,,,,,,,,,,,,,,,,,,,,,,,,202.5001073000003,202.58465550000074,203.01225180000074,203.01228250000077,203.51183170000058,203.96521010000015,203.7957765000001,203.79579990000002,205.11401060000026,205.11401060000026,,205.5648697000006,right,1,0.4425031000000672,None,,,,,,,,,,,,,,,,,,,,,,,,,,,,,,,,,,,,,,,,,,,,,,,,,,,,,,,,,,,,,016,001,2023-11-12_14h59.09.711,untitled,2023.2.2,60.11230180228108,2023-11-12 14h59.23.437665 +0800,
9,condition_1/rightstar.PNG,space,,,,,0,24,24,7,,,,,,,,,205.6294211000004,,,,,,,,,,,,,,,,,,,,,,,,,,,,,,,,,,,,,,,,,,,,,205.5660643000001,205.6294211000004,206.0798644000006,206.0798951000006,206.57842140000048,206.99184360000072,206.86273430000074,206.86276760000055,208.1804759000006,208.1804759000006,,208.56338250000044,right,0,0.369439400000374,None,,,,,,,,,,,,,,,,,,,,,,,,,,,,,,,,,,,,,,,,,,,,,,,,,,,,,,,,,,,,,016,001,2023-11-12_14h59.09.711,untitled,2023.2.2,60.11230180228108,2023-11-12 14h59.23.437665 +0800,
1,condition_1/leftstar.PNG,left,,,,,1,0,25,16,,,,,,,,,208.62146980000034,,,,,,,,,,,,,,,,,,,,,,,,,,,,,,,,,,,,,,,,,,,,,208.56411800000024,208.62146980000034,209.07926790000056,209.07928970000012,209.57831070000066,210.00023970000075,209.86263510000026,209.8626690000001,211.18056420000084,211.18056420000084,211.99481280000055,212.01331120000032,left,1,0.8213605999999345,None,,,,,,,,,,,,,,,,,,,,,,,,,,,,,,,,,,,,,,,,,,,,,,,,,,,,,,,,,,,,,016,001,2023-11-12_14h59.09.711,untitled,2023.2.2,60.11230180228108,2023-11-12 14h59.23.437665 +0800,
2,condition_1/leftstar.PNG,left,,,,,1,1,26,17,,,,,,,,,212.07339120000051,,,,,,,,,,,,,,,,,,,,,,,,,,,,,,,,,,,,,,,,,,,,,212.01441370000066,212.07339120000051,212.52908600000046,212.52913810000064,213.02849510000033,213.45862020000004,213.31264620000002,213.31267490000027,214.6303527,214.6303527,,215.21508090000043,left,1,0.5693573000007746,None,,,,,,,,,,,,,,,,,,,,,,,,,,,,,,,,,,,,,,,,,,,,,,,,,,,,,,,,,,,,,016,001,2023-11-12_14h59.09.711,untitled,2023.2.2,60.11230180228108,2023-11-12 14h59.23.437665 +0800,
1,condition_1/rightstar.PNG,right,,,,,1,2,27,21,,,,,,,,,215.2786175000001,,,,,,,,,,,,,,,,,,,,,,,,,,,,,,,,,,,,,,,,,,,,,215.2159461000001,215.2786175000001,215.72940170000038,215.72942780000085,216.22828520000076,216.63875410000037,216.51274680000006,216.5127734000007,217.83026400000017,217.83026400000017,,218.21496630000001,right,1,0.36595630000010715,None,,,,,,,,,,,,,,,,,,,,,,,,,,,,,,,,,,,,,,,,,,,,,,,,,,,,,,,,,,,,,016,001,2023-11-12_14h59.09.711,untitled,2023.2.2,60.11230180228108,2023-11-12 14h59.23.437665 +0800,
9,condition_1/blank.PNG,space,,,,,1,3,28,11,,,,,,,,,218.2782812000005,,,,,,,,,,,,,,,,,,,,,,,,,,,,,,,,,,,,,,,,,,,,,218.2159098000002,218.2782812000005,218.72918390000086,218.7292150000003,219.22804890000043,219.64747070000067,219.51285270000062,219.51287820000016,220.8296024000001,220.8296024000001,,220.9144526,space,1,0.07741959999930259,None,,,,,,,,,,,,,,,,,,,,,,,,,,,,,,,,,,,,,,,,,,,,,,,,,,,,,,,,,,,,,016,001,2023-11-12_14h59.09.711,untitled,2023.2.2,60.11230180228108,2023-11-12 14h59.23.437665 +0800,
1,condition_1/rightstar.PNG,right,,,,,1,4,29,4,,,,,,,,,220.97686710000016,,,,,,,,,,,,,,,,,,,,,,,,,,,,,,,,,,,,,,,,,,,,,220.91575190000003,220.97686710000016,221.42924270000003,221.42927450000025,221.9285133000003,222.44614040000033,222.2130990000005,222.21313080000073,223.53044410000075,223.53044410000075,,223.93097940000007,right,1,0.39769220000016503,None,,,,,,,,,,,,,,,,,,,,,,,,,,,,,,,,,,,,,,,,,,,,,,,,,,,,,,,,,,,,,016,001,2023-11-12_14h59.09.711,untitled,2023.2.2,60.11230180228108,2023-11-12 14h59.23.437665 +0800,
2,condition_1/leftstar.PNG,left,,,,,1,5,30,1,,,,,,,,,223.98806100000002,,,,,,,,,,,,,,,,,,,,,,,,,,,,,,,,,,,,,,,,,,,,,223.93206780000037,223.98806100000002,224.44615040000008,224.44618170000012,224.944837,225.3705929000007,225.2294148000001,225.22944050000024,226.54685160000008,226.54685160000008,227.36160780000046,227.7132229000008,left,1,1.1582303000004686,None,,,,,,,,,,,,,,,,,,,,,,,,,,,,,,,,,,,,,,,,,,,,,,,,,,,,,,,,,,,,,016,001,2023-11-12_14h59.09.711,untitled,2023.2.2,60.11230180228108,2023-11-12 14h59.23.437665 +0800,
1,condition_1/leftstar.PNG,left,,,,,1,6,31,0,,,,,,,,,227.7691988000006,,,,,,,,,,,,,,,,,,,,,,,,,,,,,,,,,,,,,,,,,,,,,227.71429350000017,227.7691988000006,228.22948420000012,228.22950720000063,228.72841550000066,229.13982880000003,229.01286830000026,229.0129024000007,230.33064240000022,230.33064240000022,,230.81392380000034,left,1,0.4769101000001683,None,,,,,,,,,,,,,,,,,,,,,,,,,,,,,,,,,,,,,,,,,,,,,,,,,,,,,,,,,,,,,016,001,2023-11-12_14h59.09.711,untitled,2023.2.2,60.11230180228108,2023-11-12 14h59.23.437665 +0800,
9,condition_1/leftstar.PNG,space,,,,,1,7,32,3,,,,,,,,,230.8708817000006,,,,,,,,,,,,,,,,,,,,,,,,,,,,,,,,,,,,,,,,,,,,,230.81508930000018,230.8708817000006,231.32913700000063,231.32916820000082,231.82851310000024,232.26084730000002,232.11391960000037,232.11397370000032,233.4306077000001,233.4306077000001,234.24469990000034,238.9132623000005,space,1,5.4677537999996275,None,,,,,,,,,,,,,,,,,,,,,,,,,,,,,,,,,,,,,,,,,,,,,,,,,,,,,,,,,,,,,016,001,2023-11-12_14h59.09.711,untitled,2023.2.2,60.11230180228108,2023-11-12 14h59.23.437665 +0800,
8,condition_1/leftstar.PNG,space,,,,,1,8,33,18,,,,,,,,,238.9884677,,,,,,,,,,,,,,,,,,,,,,,,,,,,,,,,,,,,,,,,,,,,,238.91424280000047,238.9884677,239.42899300000045,239.4290142000009,239.92814660000022,240.49431220000042,240.21279700000014,240.21283050000056,241.5306543000006,241.5306543000006,,241.94743430000017,left,0,0.40919209999992745,None,,,,,,,,,,,,,,,,,,,,,,,,,,,,,,,,,,,,,,,,,,,,,,,,,,,,,,,,,,,,,016,001,2023-11-12_14h59.09.711,untitled,2023.2.2,60.11230180228108,2023-11-12 14h59.23.437665 +0800,
9,condition_1/rightstar.PNG,space,,,,,1,9,34,7,,,,,,,,,242.02009780000026,,,,,,,,,,,,,,,,,,,,,,,,,,,,,,,,,,,,,,,,,,,,,241.94846230000076,242.02009780000026,242.4622478000001,242.46227810000073,242.96150340000077,243.36798590000035,243.24600160000045,243.24603150000075,244.56362290000015,244.56362290000015,,245.2984236000002,right,0,0.7322816000005332,None,,,,,,,,,,,,,,,,,,,,,,,,,,,,,,,,,,,,,,,,,,,,,,,,,,,,,,,,,,,,,016,001,2023-11-12_14h59.09.711,untitled,2023.2.2,60.11230180228108,2023-11-12 14h59.23.437665 +0800,
8,condition_1/rightstar.PNG,space,,,,,1,10,35,6,,,,,,,,,245.35545260000072,,,,,,,,,,,,,,,,,,,,,,,,,,,,,,,,,,,,,,,,,,,,,245.29949660000057,245.35545260000072,245.81233300000076,245.81235520000064,246.3116454000001,246.71551340000042,246.59625180000057,246.59627680000085,247.91369900000063,247.91369900000063,,248.34724870000082,right,0,0.4313394000000699,None,,,,,,,,,,,,,,,,,,,,,,,,,,,,,,,,,,,,,,,,,,,,,,,,,,,,,,,,,,,,,016,001,2023-11-12_14h59.09.711,untitled,2023.2.2,60.11230180228108,2023-11-12 14h59.23.437665 +0800,
1,condition_1/blank.PNG,space,,,,,1,11,36,8,,,,,,,,,248.40346350000073,,,,,,,,,,,,,,,,,,,,,,,,,,,,,,,,,,,,,,,,,,,,,248.34824970000045,248.40346350000073,248.86228200000005,248.86230460000024,249.3616163000006,249.7833051000007,249.64592410000023,249.64595080000072,250.96285250000074,250.96285250000074,251.76150230000076,254.46401520000018,space,1,3.496123799999623,None,,,,,,,,,,,,,,,,,,,,,,,,,,,,,,,,,,,,,,,,,,,,,,,,,,,,,,,,,,,,,016,001,2023-11-12_14h59.09.711,untitled,2023.2.2,60.11230180228108,2023-11-12 14h59.23.437665 +0800,
9,condition_1/leftstar.PNG,space,,,,,1,12,37,19,,,,,,,,,254.5342184000001,,,,,,,,,,,,,,,,,,,,,,,,,,,,,,,,,,,,,,,,,,,,,254.4657801000003,254.5342184000001,254.97886310000013,254.97889250000026,255.47817860000032,255.93270830000074,255.76232690000052,255.76235240000005,257.0809035000002,257.0809035000002,,257.1303654000003,space,1,0.04077270000016142,None,,,,,,,,,,,,,,,,,,,,,,,,,,,,,,,,,,,,,,,,,,,,,,,,,,,,,,,,,,,,,016,001,2023-11-12_14h59.09.711,untitled,2023.2.2,60.11230180228108,2023-11-12 14h59.23.437665 +0800,
8,condition_1/blank.PNG,space,,,,,1,13,38,10,,,,,,,,,257.19077670000024,,,,,,,,,,,,,,,,,,,,,,,,,,,,,,,,,,,,,,,,,,,,,257.1314437000001,257.19077670000024,257.6456143000005,257.6456375000007,258.1451822000008,258.53123460000006,258.42938850000064,258.4294189000002,259.74643020000076,259.74643020000076,260.5450279000006,260.6799488000006,space,1,0.9273253999999724,None,,,,,,,,,,,,,,,,,,,,,,,,,,,,,,,,,,,,,,,,,,,,,,,,,,,,,,,,,,,,,016,001,2023-11-12_14h59.09.711,untitled,2023.2.2,60.11230180228108,2023-11-12 14h59.23.437665 +0800,
2,condition_1/leftstar.PNG,left,,,,,1,14,39,22,,,,,,,,,260.73850610000045,,,,,,,,,,,,,,,,,,,,,,,,,,,,,,,,,,,,,,,,,,,,,260.6809746000008,260.73850610000045,261.1956572000008,261.19568590000017,261.6948830000001,262.10922070000015,261.9793184,261.9793485,263.2970441000007,263.2970441000007,,263.81396550000045,left,1,0.5020178999993732,None,,,,,,,,,,,,,,,,,,,,,,,,,,,,,,,,,,,,,,,,,,,,,,,,,,,,,,,,,,,,,016,001,2023-11-12_14h59.09.711,untitled,2023.2.2,60.11230180228108,2023-11-12 14h59.23.437665 +0800,
2,condition_1/rightstar.PNG,left,,,,,1,15,40,5,,,,,,,,,263.8730086000005,,,,,,,,,,,,,,,,,,,,,,,,,,,,,,,,,,,,,,,,,,,,,263.81492290000006,263.8730086000005,264.32898210000076,264.3290128000008,264.8283893000007,265.2345748000007,265.11221840000053,265.1122441000007,266.4302411000008,266.4302411000008,,266.9639509000008,right,0,0.5255224000002272,None,,,,,,,,,,,,,,,,,,,,,,,,,,,,,,,,,,,,,,,,,,,,,,,,,,,,,,,,,,,,,016,001,2023-11-12_14h59.09.711,untitled,2023.2.2,60.11230180228108,2023-11-12 14h59.23.437665 +0800,
8,condition_1/rightstar.PNG,space,,,,,1,16,41,14,,,,,,,,,267.0155633000004,,,,,,,,,,,,,,,,,,,,,,,,,,,,,,,,,,,,,,,,,,,,,266.9649655000003,267.0155633000004,267.4791961000001,267.4792251000008,267.9786378000008,268.3980975000004,268.26266550000037,268.2626960000007,269.58054080000056,269.58054080000056,,270.1975495000006,right,0,0.6079170000002705,None,,,,,,,,,,,,,,,,,,,,,,,,,,,,,,,,,,,,,,,,,,,,,,,,,,,,,,,,,,,,,016,001,2023-11-12_14h59.09.711,untitled,2023.2.2,60.11230180228108,2023-11-12 14h59.23.437665 +0800,
2,condition_1/blank.PNG,space,,,,,1,17,42,9,,,,,,,,,270.25343910000083,,,,,,,,,,,,,,,,,,,,,,,,,,,,,,,,,,,,,,,,,,,,,270.1987259000007,270.25343910000083,270.7123898000009,270.7124123000003,271.2116831000003,271.5840040000003,271.4958867000005,271.49593540000023,272.81304700000055,272.81304700000055,273.62825580000026,274.76439500000015,space,1,1.9369888000001083,None,,,,,,,,,,,,,,,,,,,,,,,,,,,,,,,,,,,,,,,,,,,,,,,,,,,,,,,,,,,,,016,001,2023-11-12_14h59.09.711,untitled,2023.2.2,60.11230180228108,2023-11-12 14h59.23.437665 +0800,
1,condition_1/rightstar.PNG,right,,,,,1,18,43,12,,,,,,,,,274.83517930000016,,,,,,,,,,,,,,,,,,,,,,,,,,,,,,,,,,,,,,,,,,,,,274.76540600000044,274.83517930000016,275.27899790000083,275.27901960000054,275.7782637,276.3204469000002,276.06265670000084,276.0626933000003,277.38103540000066,277.38103540000066,,277.8306110000003,right,1,0.4374975999999151,None,,,,,,,,,,,,,,,,,,,,,,,,,,,,,,,,,,,,,,,,,,,,,,,,,,,,,,,,,,,,,016,001,2023-11-12_14h59.09.711,untitled,2023.2.2,60.11230180228108,2023-11-12 14h59.23.437665 +0800,
2,condition_1/blank.PNG,space,,,,,1,19,44,20,,,,,,,,,277.8889826000004,,,,,,,,,,,,,,,,,,,,,,,,,,,,,,,,,,,,,,,,,,,,,277.8316268000008,277.8889826000004,278.3457348000002,278.3457573000005,278.8451289000004,279.2250232000006,279.13065280000046,279.1307045000003,280.4460272000006,280.4460272000006,281.24506200000087,283.39688430000024,space,1,2.939599100000123,None,,,,,,,,,,,,,,,,,,,,,,,,,,,,,,,,,,,,,,,,,,,,,,,,,,,,,,,,,,,,,016,001,2023-11-12_14h59.09.711,untitled,2023.2.2,60.11230180228108,2023-11-12 14h59.23.437665 +0800,
9,condition_1/rightstar.PNG,space,,,,,1,20,45,15,,,,,,,,,283.4915503000002,,,,,,,,,,,,,,,,,,,,,,,,,,,,,,,,,,,,,,,,,,,,,283.39803890000076,283.4915503000002,283.91221900000073,283.9122408000003,284.41160260000015,284.8669062000008,284.69646980000016,284.69650290000027,286.01369070000055,286.01369070000055,,286.3471930000005,right,0,0.33075929999995424,None,,,,,,,,,,,,,,,,,,,,,,,,,,,,,,,,,,,,,,,,,,,,,,,,,,,,,,,,,,,,,016,001,2023-11-12_14h59.09.711,untitled,2023.2.2,60.11230180228108,2023-11-12 14h59.23.437665 +0800,
2,condition_1/rightstar.PNG,right,,,,,1,21,46,13,,,,,,,,,286.4078520000003,,,,,,,,,,,,,,,,,,,,,,,,,,,,,,,,,,,,,,,,,,,,,286.3482735000007,286.4078520000003,286.86247750000075,286.8624993000003,287.3619726000006,287.7704147000004,287.6459631000007,287.6459928000004,288.9640889000002,288.9640889000002,289.7782590000006,290.3314317000004,right,1,1.3597952999998597,None,,,,,,,,,,,,,,,,,,,,,,,,,,,,,,,,,,,,,,,,,,,,,,,,,,,,,,,,,,,,,016,001,2023-11-12_14h59.09.711,untitled,2023.2.2,60.11230180228108,2023-11-12 14h59.23.437665 +0800,
9,condition_1/leftstar.PNG,space,,,,,1,22,47,24,,,,,,,,,290.38886640000055,,,,,,,,,,,,,,,,,,,,,,,,,,,,,,,,,,,,,,,,,,,,,290.3325582000007,290.38886640000055,290.84668580000016,290.8467229000007,291.34487640000043,291.7520194000008,291.62891450000006,291.6289385,292.9468644000008,292.9468644000008,,293.33087500000056,left,0,0.36900359999981447,None,,,,,,,,,,,,,,,,,,,,,,,,,,,,,,,,,,,,,,,,,,,,,,,,,,,,,,,,,,,,,016,001,2023-11-12_14h59.09.711,untitled,2023.2.2,60.11230180228108,2023-11-12 14h59.23.437665 +0800,
8,condition_1/leftstar.PNG,space,,,,,1,23,48,2,,,,,,,,,293.38521560000027,,,,,,,,,,,,,,,,,,,,,,,,,,,,,,,,,,,,,,,,,,,,,293.33207440000024,293.38521560000027,293.84673080000084,293.84675830000015,294.3448971000007,294.7527133000003,294.6293076000002,294.6293325000006,295.94710170000053,295.94710170000053,,296.39743030000045,space,1,0.43550840000079916,None,,,,,,,,,,,,,,,,,,,,,,,,,,,,,,,,,,,,,,,,,,,,,,,,,,,,,,,,,,,,,016,001,2023-11-12_14h59.09.711,untitled,2023.2.2,60.11230180228108,2023-11-12 14h59.23.437665 +0800,
8,condition_1/rightstar.PNG,space,,,,,1,24,49,23,,,,,,,,,296.4722339,,,,,,,,,,,,,,,,,,,,,,,,,,,,,,,,,,,,,,,,,,,,,296.3985556000007,296.4722339,296.9121074000004,296.9121287000007,297.4115902000003,297.8295355,297.69598140000016,297.6960172000008,299.0138893000003,299.0138893000003,,299.6306336000007,space,1,0.6091313999995691,None,,,,,,,,,,,,,,,,,,,,,,,,,,,,,,,,,,,,,,,,,,,,,,,,,,,,,,,,,,,,,016,001,2023-11-12_14h59.09.711,untitled,2023.2.2,60.11230180228108,2023-11-12 14h59.23.437665 +0800,
,,,,,,,,,,,,,,,,,,,,,,,,,,,,,,,,,,,,,,,,,,,,,,,,,,,,,,,,,,,,,,,,,,,,,,,,,,,,,,,,299.6313409000004,299.6446839,299.6446839,302.0967279000006,space,2.4470382999998037,None,,,,,,,,,,,,,,,,,,,,,,,,,,,,,,,,,,,,,,,,,,,,,,,,,,,,,,016,001,2023-11-12_14h59.09.711,untitled,2023.2.2,60.11230180228108,2023-11-12 14h59.23.437665 +0800,
,,,,,,,,,,,,,,,,,,,,,,,,,,,,,,,,,,,,,,,,,,,,,,,,,,,,,,,,,,,,,,,,,,,,,,,,,,,,,,,,,,,,,,,302.0967870000004,302.1115813000006,302.1115813000006,321.09629850000056,space,18.97506450000037,None,,,,,,,,,,,,,,,,,,,,,,,,,,,,,,,,,,,,,,,,,,,,,,,016,001,2023-11-12_14h59.09.711,untitled,2023.2.2,60.11230180228108,2023-11-12 14h59.23.437665 +0800,
8,test2/leftstar.PNG,left,,,,,,,,,0,0,0,5,,,,,321.20134080000025,,,,,,,,,,,,,,,,,,,,,,,,,,,,,,,,,,,,,,,,,,,,,,,,,,,,,,,,,,,,,,,,,,,,,,,,,,,321.11946650000027,321.20134080000025,321.6123193000003,321.61234630000035,322.1117328,322.67603130000043,322.3971096000005,322.39714080000067,323.7245238000005,323.7245238000005,324.26425460000064,left,0.5268730999996478,None,,,,,,,,,,,,,,,,,,,,,,,,,,,,,,,,,016,001,2023-11-12_14h59.09.711,untitled,2023.2.2,60.11230180228108,2023-11-12 14h59.23.437665 +0800,
1,test2/leftstar.PNG,space,,,,,,,,,0,1,1,0,,,,,324.3255790000003,,,,,,,,,,,,,,,,,,,,,,,,,,,,,,,,,,,,,,,,,,,,,,,,,,,,,,,,,,,,,,,,,,,,,,,,,,,324.26599070000066,324.3255790000003,324.7787954000005,324.7788207000003,325.27857380000023,325.6814929000002,325.56263410000065,325.5626602000002,326.88014160000057,326.88014160000057,327.4310909000005,left,0.5466292000000976,None,,,,,,,,,,,,,,,,,,,,,,,,,,,,,,,,,016,001,2023-11-12_14h59.09.711,untitled,2023.2.2,60.11230180228108,2023-11-12 14h59.23.437665 +0800,
1,test2/blank.PNG,space,,,,,,,,,0,2,2,2,,,,,327.4858382000002,,,,,,,,,,,,,,,,,,,,,,,,,,,,,,,,,,,,,,,,,,,,,,,,,,,,,,,,,,,,,,,,,,,,,,,,,,,327.43217790000017,327.4858382000002,327.94563990000006,327.94567260000076,328.4448145000006,328.86599920000026,328.72945920000075,328.72948800000086,330.0460348000006,330.0460348000006,331.99674270000014,space,1.9358038999998826,None,330.8451405000005,,,,,,,,,,,,,,,,,,,,,,,,,,,,,,,,016,001,2023-11-12_14h59.09.711,untitled,2023.2.2,60.11230180228108,2023-11-12 14h59.23.437665 +0800,
8,test2/rightstar.PNG,right,,,,,,,,,0,3,3,1,,,,,332.0558135000001,,,,,,,,,,,,,,,,,,,,,,,,,,,,,,,,,,,,,,,,,,,,,,,,,,,,,,,,,,,,,,,,,,,,,,,,,,,331.99766460000046,332.0558135000001,332.5119452000008,332.51198620000014,333.0117594000003,333.4423200000001,333.29570350000085,333.29573360000086,334.6136649,334.6136649,335.0500099000001,right,0.4335345999998026,None,,,,,,,,,,,,,,,,,,,,,,,,,,,,,,,,,016,001,2023-11-12_14h59.09.711,untitled,2023.2.2,60.11230180228108,2023-11-12 14h59.23.437665 +0800,
9,test2/rightstar.PNG,right,,,,,,,,,0,4,4,3,,,,,335.1061729000003,,,,,,,,,,,,,,,,,,,,,,,,,,,,,,,,,,,,,,,,,,,,,,,,,,,,,,,,,,,,,,,,,,,,,,,,,,,335.0509146000004,335.1061729000003,335.5629054000001,335.56293070000083,336.06155280000075,336.47470840000005,336.3452343000008,336.34525270000086,337.6637916000009,337.6637916000009,338.08057760000065,right,0.4051399999998466,None,,,,,,,,,,,,,,,,,,,,,,,,,,,,,,,,,016,001,2023-11-12_14h59.09.711,untitled,2023.2.2,60.11230180228108,2023-11-12 14h59.23.437665 +0800,
2,test2/leftstar.PNG,space,,,,,,,,,0,5,5,4,,,,,338.1700993000004,,,,,,,,,,,,,,,,,,,,,,,,,,,,,,,,,,,,,,,,,,,,,,,,,,,,,,,,,,,,,,,,,,,,,,,,,,,338.08146250000027,338.1700993000004,338.5953233,338.5953485,339.0947565000006,339.50599260000035,339.3809276000002,339.38098750000063,340.6969321000006,340.6969321000006,341.11386720000064,left,0.4079744999999093,None,,,,,,,,,,,,,,,,,,,,,,,,,,,,,,,,,016,001,2023-11-12_14h59.09.711,untitled,2023.2.2,60.11230180228108,2023-11-12 14h59.23.437665 +0800,
,,,,,,,,,,,,,,,,,,,,,,,,,,,,,,,,,,,,,,,,,,,,,,,,,,,,,,,,,,,,,,,,,,,,,,,,,,,,,,,,,,,,,,,,,,,,,,,,,,,,,,,,,,,,,341.1144669000005,341.1281213000002,341.1281213000002,342.1284843000003,342.8630154000002,space,1.7183674999996583,None,,,,,,,,,,,,,,,,,,,,,,,,016,001,2023-11-12_14h59.09.711,untitled,2023.2.2,60.11230180228108,2023-11-12 14h59.23.437665 +0800,
,,,,,,,,,,,,,,,,,,,,,,,,,,,,,,,,,,,,,,,,,,,,,,,,,,,,,,,,,,,,,,,,,,,,,,,,,,,,,,,,,,,,,,,,,,,,,,,,,,,,,,,,,,,,,,,,,,,,,342.8630780000003,342.8782873,342.8782873,343.6136425000004,space,0.731956600000558,None,,,,,,,,,,,,,,,,,016,001,2023-11-12_14h59.09.711,untitled,2023.2.2,60.11230180228108,2023-11-12 14h59.23.437665 +0800,
2,condition_2/rightstar.PNG,space,,,,,,,,,,,,,0,0,0,13,343.69070550000015,,,,,,,,,,,,,,,,,,,,,,,,,,,,,,,,,,,,,,,,,,,,,,,,,,,,,,,,,,,,,,,,,,,,,,,,,,,,,,,,,,,,,,,,,,,,,,,,,,,,,,,,,343.6355435000005,343.69070550000015,344.1288716000008,344.12889930000074,344.62822060000053,345.16332480000074,344.91250990000026,344.9125445000009,346.2448170000007,346.2448170000007,346.8640298,right,0,0.6020988000000216,None,,016,001,2023-11-12_14h59.09.711,untitled,2023.2.2,60.11230180228108,2023-11-12 14h59.23.437665 +0800,
8,condition_2/rightstar.PNG,right,,,,,,,,,,,,,0,1,1,23,346.9216514000009,,,,,,,,,,,,,,,,,,,,,,,,,,,,,,,,,,,,,,,,,,,,,,,,,,,,,,,,,,,,,,,,,,,,,,,,,,,,,,,,,,,,,,,,,,,,,,,,,,,,,,,,,346.86554630000046,346.9216514000009,347.3792548000001,347.3792794000001,347.87856640000064,348.2804814000001,348.16245400000025,348.1624816000003,349.4805815000009,349.4805815000009,349.9979000000003,right,1,0.49962369999957446,None,,016,001,2023-11-12_14h59.09.711,untitled,2023.2.2,60.11230180228108,2023-11-12 14h59.23.437665 +0800,
9,condition_2/leftstar.PNG,left,,,,,,,,,,,,,0,2,2,19,350.05135600000085,,,,,,,,,,,,,,,,,,,,,,,,,,,,,,,,,,,,,,,,,,,,,,,,,,,,,,,,,,,,,,,,,,,,,,,,,,,,,,,,,,,,,,,,,,,,,,,,,,,,,,,,,349.9993523000003,350.05135600000085,350.5122271,350.51226140000017,351.01165590000073,351.47248350000064,351.29591790000086,351.2959466000002,352.6139653,352.6139653,353.13046340000074,left,1,0.5043279999999868,None,,016,001,2023-11-12_14h59.09.711,untitled,2023.2.2,60.11230180228108,2023-11-12 14h59.23.437665 +0800,
8,condition_2/rightstar.PNG,right,,,,,,,,,,,,,0,3,3,6,353.1948783000007,,,,,,,,,,,,,,,,,,,,,,,,,,,,,,,,,,,,,,,,,,,,,,,,,,,,,,,,,,,,,,,,,,,,,,,,,,,,,,,,,,,,,,,,,,,,,,,,,,,,,,,,,353.1316564000008,353.1948783000007,353.6456997000005,353.6457257000002,354.14531420000003,354.5631578000002,354.42980050000006,354.42984350000006,355.74715820000074,355.74715820000074,356.21359350000057,right,1,0.4549599000001763,None,,016,001,2023-11-12_14h59.09.711,untitled,2023.2.2,60.11230180228108,2023-11-12 14h59.23.437665 +0800,
1,condition_2/leftstar.PNG,space,,,,,,,,,,,,,0,4,4,0,356.30411320000076,,,,,,,,,,,,,,,,,,,,,,,,,,,,,,,,,,,,,,,,,,,,,,,,,,,,,,,,,,,,,,,,,,,,,,,,,,,,,,,,,,,,,,,,,,,,,,,,,,,,,,,,,356.21456600000056,356.30411320000076,356.7288922000007,356.72891960000015,357.2285025000001,357.66261470000063,357.5128168000001,357.5128549000001,358.8302740000008,358.8302740000008,359.49775900000077,left,0,0.6600182000001951,None,,016,001,2023-11-12_14h59.09.711,untitled,2023.2.2,60.11230180228108,2023-11-12 14h59.23.437665 +0800,
8,condition_2/leftstar.PNG,left,,,,,,,,,,,,,0,5,5,2,359.5541309,,,,,,,,,,,,,,,,,,,,,,,,,,,,,,,,,,,,,,,,,,,,,,,,,,,,,,,,,,,,,,,,,,,,,,,,,,,,,,,,,,,,,,,,,,,,,,,,,,,,,,,,,359.4990886000005,359.5541309,360.012111,360.0121699000001,360.5116826000003,360.93437260000064,360.79634390000047,360.7963711000002,362.1135045000001,362.1135045000001,362.7475071000008,left,1,0.6316233000006832,None,,016,001,2023-11-12_14h59.09.711,untitled,2023.2.2,60.11230180228108,2023-11-12 14h59.23.437665 +0800,
2,condition_2/rightstar.PNG,space,,,,,,,,,,,,,0,6,6,21,362.8032604,,,,,,,,,,,,,,,,,,,,,,,,,,,,,,,,,,,,,,,,,,,,,,,,,,,,,,,,,,,,,,,,,,,,,,,,,,,,,,,,,,,,,,,,,,,,,,,,,,,,,,,,,362.74868230000084,362.8032604,363.2622142,363.26223950000076,363.76137760000074,364.16816310000013,364.0458266000005,364.0458582000001,365.3638619000003,365.3638619000003,365.7807117000002,right,0,0.41350319999946805,None,,016,001,2023-11-12_14h59.09.711,untitled,2023.2.2,60.11230180228108,2023-11-12 14h59.23.437665 +0800,
2,condition_2/rightstar.PNG,space,,,,,,,,,,,,,0,7,7,5,365.84234060000017,,,,,,,,,,,,,,,,,,,,,,,,,,,,,,,,,,,,,,,,,,,,,,,,,,,,,,,,,,,,,,,,,,,,,,,,,,,,,,,,,,,,,,,,,,,,,,,,,,,,,,,,,365.7818614000007,365.84234060000017,366.2957765000001,366.29580070000065,366.7948421000001,367.2063887000004,367.0792334000007,367.07926190000035,368.39700490000087,368.39700490000087,368.7802797000004,right,0,0.36954490000061924,None,,016,001,2023-11-12_14h59.09.711,untitled,2023.2.2,60.11230180228108,2023-11-12 14h59.23.437665 +0800,
9,condition_2/rightstar.PNG,right,,,,,,,,,,,,,0,8,8,7,368.83445760000086,,,,,,,,,,,,,,,,,,,,,,,,,,,,,,,,,,,,,,,,,,,,,,,,,,,,,,,,,,,,,,,,,,,,,,,,,,,,,,,,,,,,,,,,,,,,,,,,,,,,,,,,,368.78135440000005,368.83445760000086,369.29587340000035,369.2959086000001,369.7950167000008,370.20670450000034,370.07906450000064,370.07909870000003,371.39697180000076,371.39697180000076,371.78096240000013,right,1,0.373350500000015,None,,016,001,2023-11-12_14h59.09.711,untitled,2023.2.2,60.11230180228108,2023-11-12 14h59.23.437665 +0800,
2,condition_2/leftstar.PNG,space,,,,,,,,,,,,,0,9,9,1,371.8404356000001,,,,,,,,,,,,,,,,,,,,,,,,,,,,,,,,,,,,,,,,,,,,,,,,,,,,,,,,,,,,,,,,,,,,,,,,,,,,,,,,,,,,,,,,,,,,,,,,,,,,,,,,,371.78251290000026,371.8404356000001,372.29558440000073,372.29561730000023,372.7948092000006,373.20722320000004,373.07985070000086,373.07988320000004,374.39686260000053,374.39686260000053,374.7807511000001,space,1,0.37204669999937323,None,,016,001,2023-11-12_14h59.09.711,untitled,2023.2.2,60.11230180228108,2023-11-12 14h59.23.437665 +0800,
1,condition_2/rightstar.PNG,space,,,,,,,,,,,,,0,10,10,4,374.84428750000006,,,,,,,,,,,,,,,,,,,,,,,,,,,,,,,,,,,,,,,,,,,,,,,,,,,,,,,,,,,,,,,,,,,,,,,,,,,,,,,,,,,,,,,,,,,,,,,,,,,,,,,,,374.7818509000008,374.84428750000006,375.2966084000009,375.2966625000008,375.7948857000001,376.2041689000007,376.07919200000015,376.0792235000008,377.3970438000006,377.3970438000006,377.83104430000003,space,1,0.4283586000001378,None,,016,001,2023-11-12_14h59.09.711,untitled,2023.2.2,60.11230180228108,2023-11-12 14h59.23.437665 +0800,
1,condition_2/rightstar.PNG,space,,,,,,,,,,,,,0,11,11,12,377.8857555000004,,,,,,,,,,,,,,,,,,,,,,,,,,,,,,,,,,,,,,,,,,,,,,,,,,,,,,,,,,,,,,,,,,,,,,,,,,,,,,,,,,,,,,,,,,,,,,,,,,,,,,,,,377.8323003000005,377.8857555000004,378.34573270000055,378.3457659000005,378.84470580000016,379.25726100000065,379.12959150000006,379.1296230000007,380.4474891000009,380.4474891000009,381.0647940000008,space,1,0.6039655999993556,None,,016,001,2023-11-12_14h59.09.711,untitled,2023.2.2,60.11230180228108,2023-11-12 14h59.23.437665 +0800,
8,condition_2/leftstar.PNG,left,,,,,,,,,,,,,0,12,12,18,381.1263841,,,,,,,,,,,,,,,,,,,,,,,,,,,,,,,,,,,,,,,,,,,,,,,,,,,,,,,,,,,,,,,,,,,,,,,,,,,,,,,,,,,,,,,,,,,,,,,,,,,,,,,,,381.0658583000004,381.1263841,381.57887780000055,381.5788928000002,382.0778923000007,382.48579810000047,382.3623249000002,382.3623539,383.6805191000003,383.6805191000003,384.09703830000035,left,1,0.41030030000001716,None,,016,001,2023-11-12_14h59.09.711,untitled,2023.2.2,60.11230180228108,2023-11-12 14h59.23.437665 +0800,
8,condition_2/blank.PNG,space,,,,,,,,,,,,,0,13,13,10,384.1605346000006,,,,,,,,,,,,,,,,,,,,,,,,,,,,,,,,,,,,,,,,,,,,,,,,,,,,,,,,,,,,,,,,,,,,,,,,,,,,,,,,,,,,,,,,,,,,,,,,,,,,,,,,,384.0978113000001,384.1605346000006,384.61227920000056,384.6123069000005,385.1113183000007,385.54272690000016,385.39659650000067,385.3966244000003,386.71274750000066,386.71274750000066,388.21423680000044,space,1,1.4933645999999499,None,387.5116372000002,016,001,2023-11-12_14h59.09.711,untitled,2023.2.2,60.11230180228108,2023-11-12 14h59.23.437665 +0800,
9,condition_2/leftstar.PNG,left,,,,,,,,,,,,,0,14,14,20,388.26883140000064,,,,,,,,,,,,,,,,,,,,,,,,,,,,,,,,,,,,,,,,,,,,,,,,,,,,,,,,,,,,,,,,,,,,,,,,,,,,,,,,,,,,,,,,,,,,,,,,,,,,,,,,,388.21528430000035,388.26883140000064,388.7288954000005,388.7289315000007,389.22807550000016,389.7596753000007,389.51270620000014,389.51273740000033,390.83064860000013,390.83064860000013,392.41301570000087,space,0,1.5651091999998243,None,391.6447111000007,016,001,2023-11-12_14h59.09.711,untitled,2023.2.2,60.11230180228108,2023-11-12 14h59.23.437665 +0800,
8,condition_2/blank.PNG,space,,,,,,,,,,,,,0,15,15,24,392.46791270000085,,,,,,,,,,,,,,,,,,,,,,,,,,,,,,,,,,,,,,,,,,,,,,,,,,,,,,,,,,,,,,,,,,,,,,,,,,,,,,,,,,,,,,,,,,,,,,,,,,,,,,,,,392.4140890000008,392.46791270000085,392.9288434,392.9288705000008,393.42826570000034,393.7962570000009,393.7132194000005,393.71324990000085,395.0296562000003,395.0296562000003,397.0461391000008,space,1,2.005390299999817,None,395.82821220000005,016,001,2023-11-12_14h59.09.711,untitled,2023.2.2,60.11230180228108,2023-11-12 14h59.23.437665 +0800,
1,condition_2/blank.PNG,space,,,,,,,,,,,,,0,16,16,8,397.10044690000086,,,,,,,,,,,,,,,,,,,,,,,,,,,,,,,,,,,,,,,,,,,,,,,,,,,,,,,,,,,,,,,,,,,,,,,,,,,,,,,,,,,,,,,,,,,,,,,,,,,,,,,,,397.04716970000027,397.10044690000086,397.5627318000006,397.5627677000002,398.0617985000008,398.38847330000044,398.3459328000008,398.34596220000003,399.66277980000086,399.66277980000086,400.0637407000004,space,1,0.38667870000062976,None,,016,001,2023-11-12_14h59.09.711,untitled,2023.2.2,60.11230180228108,2023-11-12 14h59.23.437665 +0800,
1,condition_2/leftstar.PNG,space,,,,,,,,,,,,,0,17,17,22,400.1329220000007,,,,,,,,,,,,,,,,,,,,,,,,,,,,,,,,,,,,,,,,,,,,,,,,,,,,,,,,,,,,,,,,,,,,,,,,,,,,,,,,,,,,,,,,,,,,,,,,,,,,,,,,,400.06477070000074,400.1329220000007,400.5791227000009,400.5791564000001,401.0781224000002,401.6141776000004,401.36256440000034,401.36259640000026,402.68035710000004,402.68035710000004,403.26491330000044,space,1,0.5754180000003544,None,,016,001,2023-11-12_14h59.09.711,untitled,2023.2.2,60.11230180228108,2023-11-12 14h59.23.437665 +0800,
9,condition_2/blank.PNG,space,,,,,,,,,,,,,0,18,18,11,403.3189462,,,,,,,,,,,,,,,,,,,,,,,,,,,,,,,,,,,,,,,,,,,,,,,,,,,,,,,,,,,,,,,,,,,,,,,,,,,,,,,,,,,,,,,,,,,,,,,,,,,,,,,,,403.26604380000026,403.3189462,403.7787268000002,403.77876520000063,404.27800170000046,404.65063200000077,404.5627919000008,404.56285150000076,405.87933410000005,405.87933410000005,406.9474611000005,space,1,1.0542222000003676,None,406.6780641000005,016,001,2023-11-12_14h59.09.711,untitled,2023.2.2,60.11230180228108,2023-11-12 14h59.23.437665 +0800,
2,condition_2/leftstar.PNG,space,,,,,,,,,,,,,0,19,19,17,407.0057499000004,,,,,,,,,,,,,,,,,,,,,,,,,,,,,,,,,,,,,,,,,,,,,,,,,,,,,,,,,,,,,,,,,,,,,,,,,,,,,,,,,,,,,,,,,,,,,,,,,,,,,,,,,406.94890750000013,407.0057499000004,407.4624433000008,407.4624782000001,407.9617552000009,408.3771622000004,408.24567190000016,408.2457013000003,409.56356490000053,409.56356490000053,410.06395860000066,space,1,0.48743280000053346,None,,016,001,2023-11-12_14h59.09.711,untitled,2023.2.2,60.11230180228108,2023-11-12 14h59.23.437665 +0800,
1,condition_2/leftstar.PNG,space,,,,,,,,,,,,,0,20,20,16,410.1211189000005,,,,,,,,,,,,,,,,,,,,,,,,,,,,,,,,,,,,,,,,,,,,,,,,,,,,,,,,,,,,,,,,,,,,,,,,,,,,,,,,,,,,,,,,,,,,,,,,,,,,,,,,,410.06514080000034,410.1211189000005,410.5788930000008,410.5789181,411.07812510000076,411.49521840000034,411.3634806,411.3635144000009,412.68057000000044,412.68057000000044,413.1139202000004,space,1,0.423087499999383,None,,016,001,2023-11-12_14h59.09.711,untitled,2023.2.2,60.11230180228108,2023-11-12 14h59.23.437665 +0800,
9,condition_2/rightstar.PNG,right,,,,,,,,,,,,,0,21,21,15,413.16644050000014,,,,,,,,,,,,,,,,,,,,,,,,,,,,,,,,,,,,,,,,,,,,,,,,,,,,,,,,,,,,,,,,,,,,,,,,,,,,,,,,,,,,,,,,,,,,,,,,,,,,,,,,,413.1150312000009,413.16644050000014,413.6290172000008,413.6290437000007,414.1281250000002,414.5563471000005,414.4125290000002,414.41255750000073,415.73029100000076,415.73029100000076,416.3323904000008,right,1,0.5912604000004649,None,,016,001,2023-11-12_14h59.09.711,untitled,2023.2.2,60.11230180228108,2023-11-12 14h59.23.437665 +0800,
8,condition_2/rightstar.PNG,right,,,,,,,,,,,,,0,22,22,14,416.3893801000004,,,,,,,,,,,,,,,,,,,,,,,,,,,,,,,,,,,,,,,,,,,,,,,,,,,,,,,,,,,,,,,,,,,,,,,,,,,,,,,,,,,,,,,,,,,,,,,,,,,,,,,,,416.33377780000046,416.3893801000004,416.8461533000009,416.8461797,417.34490880000067,417.7695452000007,417.6290192000006,417.6290475000005,418.94707780000044,418.94707780000044,419.3302173000002,right,1,0.3737068000000363,None,,016,001,2023-11-12_14h59.09.711,untitled,2023.2.2,60.11230180228108,2023-11-12 14h59.23.437665 +0800,
2,condition_2/blank.PNG,space,,,,,,,,,,,,,0,23,23,9,419.38507220000065,,,,,,,,,,,,,,,,,,,,,,,,,,,,,,,,,,,,,,,,,,,,,,,,,,,,,,,,,,,,,,,,,,,,,,,,,,,,,,,,,,,,,,,,,,,,,,,,,,,,,,,,,419.3312721000002,419.38507220000065,419.8455861000002,419.84561180000037,420.34517330000017,420.7682188000008,420.6295878000001,420.62961840000025,421.94603540000026,421.94603540000026,422.7633828000007,space,1,0.8140328999998019,None,422.7447140000004,016,001,2023-11-12_14h59.09.711,untitled,2023.2.2,60.11230180228108,2023-11-12 14h59.23.437665 +0800,
9,condition_2/leftstar.PNG,left,,,,,,,,,,,,,0,24,24,3,422.82792340000015,,,,,,,,,,,,,,,,,,,,,,,,,,,,,,,,,,,,,,,,,,,,,,,,,,,,,,,,,,,,,,,,,,,,,,,,,,,,,,,,,,,,,,,,,,,,,,,,,,,,,,,,,422.7644287000003,422.82792340000015,423.27920130000075,423.2792291000005,423.77836950000074,424.30899670000053,424.06275560000086,424.0627890000005,425.38069560000076,425.38069560000076,425.73081700000057,left,1,0.3397487000002002,None,,016,001,2023-11-12_14h59.09.711,untitled,2023.2.2,60.11230180228108,2023-11-12 14h59.23.437665 +0800,
2,condition_2/blank.PNG,space,,,,,,,,,,,,,1,0,25,9,425.7823399000008,,,,,,,,,,,,,,,,,,,,,,,,,,,,,,,,,,,,,,,,,,,,,,,,,,,,,,,,,,,,,,,,,,,,,,,,,,,,,,,,,,,,,,,,,,,,,,,,,,,,,,,,,425.7318933000006,425.7823399000008,426.2456791000004,426.2457148000003,426.7452297000009,427.10973450000074,427.0293397000005,427.0293750000001,428.3461995000007,428.3461995000007,428.4644452000002,space,1,0.11021230000005744,None,,016,001,2023-11-12_14h59.09.711,untitled,2023.2.2,60.11230180228108,2023-11-12 14h59.23.437665 +0800,
1,condition_2/leftstar.PNG,space,,,,,,,,,,,,,1,1,26,0,428.5177353000008,,,,,,,,,,,,,,,,,,,,,,,,,,,,,,,,,,,,,,,,,,,,,,,,,,,,,,,,,,,,,,,,,,,,,,,,,,,,,,,,,,,,,,,,,,,,,,,,,,,,,,,,,428.4657558000008,428.5177353000008,428.9791619000007,428.97919770000044,429.47838560000037,429.89140770000085,429.7627385000005,429.76277030000074,431.08067570000003,431.08067570000003,431.6156049000001,space,1,0.5323054999998931,None,,016,001,2023-11-12_14h59.09.711,untitled,2023.2.2,60.11230180228108,2023-11-12 14h59.23.437665 +0800,
8,condition_2/blank.PNG,space,,,,,,,,,,,,,1,2,27,10,431.6710944000006,,,,,,,,,,,,,,,,,,,,,,,,,,,,,,,,,,,,,,,,,,,,,,,,,,,,,,,,,,,,,,,,,,,,,,,,,,,,,,,,,,,,,,,,,,,,,,,,,,,,,,,,,431.61671920000026,431.6710944000006,432.1288471000007,432.12887320000027,432.62814140000046,433.03386580000006,432.9124089000006,432.91244730000017,434.2296221000006,434.2296221000006,437.0980791000002,space,1,2.8646864000002097,None,435.0280515000004,016,001,2023-11-12_14h59.09.711,untitled,2023.2.2,60.11230180228108,2023-11-12 14h59.23.437665 +0800,
2,condition_2/leftstar.PNG,space,,,,,,,,,,,,,1,3,28,17,437.1697743000004,,,,,,,,,,,,,,,,,,,,,,,,,,,,,,,,,,,,,,,,,,,,,,,,,,,,,,,,,,,,,,,,,,,,,,,,,,,,,,,,,,,,,,,,,,,,,,,,,,,,,,,,,437.09952110000086,437.1697743000004,437.6122585000003,437.61228570000003,438.11169530000006,438.57000440000047,438.3957911000007,438.3958278,439.71367010000085,439.71367010000085,440.18066,space,1,0.4557994000006147,None,,016,001,2023-11-12_14h59.09.711,untitled,2023.2.2,60.11230180228108,2023-11-12 14h59.23.437665 +0800,
2,condition_2/leftstar.PNG,space,,,,,,,,,,,,,1,4,29,1,440.2701156000003,,,,,,,,,,,,,,,,,,,,,,,,,,,,,,,,,,,,,,,,,,,,,,,,,,,,,,,,,,,,,,,,,,,,,,,,,,,,,,,,,,,,,,,,,,,,,,,,,,,,,,,,,440.18180590000065,440.2701156000003,440.6954774000005,440.6955043000007,441.1948271000001,441.62438010000005,441.47947530000056,441.4795038000002,442.7970144000001,442.7970144000001,444.2964141000002,space,1,1.4845236999999543,None,443.6114159000008,016,001,2023-11-12_14h59.09.711,untitled,2023.2.2,60.11230180228108,2023-11-12 14h59.23.437665 +0800,
8,condition_2/rightstar.PNG,right,,,,,,,,,,,,,1,5,30,14,444.36800460000086,,,,,,,,,,,,,,,,,,,,,,,,,,,,,,,,,,,,,,,,,,,,,,,,,,,,,,,,,,,,,,,,,,,,,,,,,,,,,,,,,,,,,,,,,,,,,,,,,,,,,,,,,444.2974527000006,444.36800460000086,444.81238630000007,444.812414,445.3116058000005,445.7273303000002,445.5957262000002,445.5957496000001,446.91399470000033,446.91399470000033,447.9635433000003,right,1,1.047793400000046,None,447.7283075000005,016,001,2023-11-12_14h59.09.711,untitled,2023.2.2,60.11230180228108,2023-11-12 14h59.23.437665 +0800,
9,condition_2/leftstar.PNG,left,,,,,,,,,,,,,1,6,31,20,448.0217405000003,,,,,,,,,,,,,,,,,,,,,,,,,,,,,,,,,,,,,,,,,,,,,,,,,,,,,,,,,,,,,,,,,,,,,,,,,,,,,,,,,,,,,,,,,,,,,,,,,,,,,,,,,447.9645521000002,448.0217405000003,448.4791539000007,448.4792116000008,448.97814670000025,449.3908069000008,449.2627383000008,449.2627693000004,450.5801979000007,450.5801979000007,450.91430650000075,left,1,0.32823869999992894,None,,016,001,2023-11-12_14h59.09.711,untitled,2023.2.2,60.11230180228108,2023-11-12 14h59.23.437665 +0800,
2,condition_2/rightstar.PNG,space,,,,,,,,,,,,,1,7,32,5,450.9695399000002,,,,,,,,,,,,,,,,,,,,,,,,,,,,,,,,,,,,,,,,,,,,,,,,,,,,,,,,,,,,,,,,,,,,,,,,,,,,,,,,,,,,,,,,,,,,,,,,,,,,,,,,,450.9152088000001,450.9695399000002,451.42875000000004,451.4287766000007,451.9283101000001,452.3568933000006,452.21296450000045,452.2129967000001,453.5303788000001,453.5303788000001,454.13073540000005,space,1,0.5833154000001741,None,,016,001,2023-11-12_14h59.09.711,untitled,2023.2.2,60.11230180228108,2023-11-12 14h59.23.437665 +0800,
1,condition_2/blank.PNG,space,,,,,,,,,,,,,1,8,33,8,454.1962884000004,,,,,,,,,,,,,,,,,,,,,,,,,,,,,,,,,,,,,,,,,,,,,,,,,,,,,,,,,,,,,,,,,,,,,,,,,,,,,,,,,,,,,,,,,,,,,,,,,,,,,,,,,454.1318983000001,454.1962884000004,454.64548130000003,454.64550580000014,455.1448994000002,455.5523639000003,455.42902010000034,455.42904830000043,456.7462776000002,456.7462776000002,457.53073230000064,space,1,0.7677166000003126,None,457.5900123000001,016,001,2023-11-12_14h59.09.711,untitled,2023.2.2,60.11230180228108,2023-11-12 14h59.23.437665 +0800,
1,condition_2/rightstar.PNG,space,,,,,,,,,,,,,1,9,34,12,457.5900123000001,,,,,,,,,,,,,,,,,,,,,,,,,,,,,,,,,,,,,,,,,,,,,,,,,,,,,,,,,,,,,,,,,,,,,,,,,,,,,,,,,,,,,,,,,,,,,,,,,,,,,,,,,457.5318137000004,457.5900123000001,458.04558820000057,458.04561470000044,458.5451786000003,459.0958399000001,458.8291646000007,458.8291971000008,460.1472777000008,460.1472777000008,460.7307296000008,space,1,0.5751166999998532,None,,016,001,2023-11-12_14h59.09.711,untitled,2023.2.2,60.11230180228108,2023-11-12 14h59.23.437665 +0800,
9,condition_2/blank.PNG,space,,,,,,,,,,,,,1,10,35,11,460.7891326000008,,,,,,,,,,,,,,,,,,,,,,,,,,,,,,,,,,,,,,,,,,,,,,,,,,,,,,,,,,,,,,,,,,,,,,,,,,,,,,,,,,,,,,,,,,,,,,,,,,,,,,,,,460.7318331000006,460.7891326000008,461.2456798000003,461.2457049000004,461.74463540000033,462.1087150000003,462.0293861,462.0294145000007,463.3461636000002,463.3461636000002,464.36275660000047,space,1,1.0146116999994774,None,464.1447106000005,016,001,2023-11-12_14h59.09.711,untitled,2023.2.2,60.11230180228108,2023-11-12 14h59.23.437665 +0800,
1,condition_2/leftstar.PNG,space,,,,,,,,,,,,,1,11,36,16,464.41546840000046,,,,,,,,,,,,,,,,,,,,,,,,,,,,,,,,,,,,,,,,,,,,,,,,,,,,,,,,,,,,,,,,,,,,,,,,,,,,,,,,,,,,,,,,,,,,,,,,,,,,,,,,,464.36335580000014,464.41546840000046,464.87915730000077,464.87918530000024,465.3782624000005,465.78749360000074,465.66222580000067,465.66225490000033,466.9806217000005,466.9806217000005,467.46398300000055,space,1,0.48085249999985535,None,,016,001,2023-11-12_14h59.09.711,untitled,2023.2.2,60.11230180228108,2023-11-12 14h59.23.437665 +0800,
8,condition_2/blank.PNG,space,,,,,,,,,,,,,1,12,37,24,467.5234472000002,,,,,,,,,,,,,,,,,,,,,,,,,,,,,,,,,,,,,,,,,,,,,,,,,,,,,,,,,,,,,,,,,,,,,,,,,,,,,,,,,,,,,,,,,,,,,,,,,,,,,,,,,467.4651694000004,467.5234472000002,467.9788930000004,467.97892840000077,468.4781687000004,468.84167250000064,468.76264040000024,468.7626719,470.07985200000076,470.07985200000076,471.0796768,space,1,0.9919718999999532,None,470.8781159,016,001,2023-11-12_14h59.09.711,untitled,2023.2.2,60.11230180228108,2023-11-12 14h59.23.437665 +0800,
1,condition_2/rightstar.PNG,space,,,,,,,,,,,,,1,13,38,4,471.14163350000035,,,,,,,,,,,,,,,,,,,,,,,,,,,,,,,,,,,,,,,,,,,,,,,,,,,,,,,,,,,,,,,,,,,,,,,,,,,,,,,,,,,,,,,,,,,,,,,,,,,,,,,,,471.08099220000076,471.14163350000035,471.59592110000085,471.59594880000077,472.0949289,472.63296980000086,472.37936270000046,472.3793914000007,473.6976525,473.6976525,474.213573,space,1,0.5076542999995581,None,,016,001,2023-11-12_14h59.09.711,untitled,2023.2.2,60.11230180228108,2023-11-12 14h59.23.437665 +0800,
8,condition_2/rightstar.PNG,right,,,,,,,,,,,,,1,14,39,23,474.2642904000004,,,,,,,,,,,,,,,,,,,,,,,,,,,,,,,,,,,,,,,,,,,,,,,,,,,,,,,,,,,,,,,,,,,,,,,,,,,,,,,,,,,,,,,,,,,,,,,,,,,,,,,,,474.2146588000005,474.2642904000004,474.72885170000063,474.7288778000002,475.22808460000033,475.64500020000014,475.51252450000084,475.5125571000008,476.83014600000024,476.83014600000024,477.1976173000003,right,1,0.3594653999998627,None,,016,001,2023-11-12_14h59.09.711,untitled,2023.2.2,60.11230180228108,2023-11-12 14h59.23.437665 +0800,
8,condition_2/rightstar.PNG,right,,,,,,,,,,,,,1,15,40,6,477.2558480000007,,,,,,,,,,,,,,,,,,,,,,,,,,,,,,,,,,,,,,,,,,,,,,,,,,,,,,,,,,,,,,,,,,,,,,,,,,,,,,,,,,,,,,,,,,,,,,,,,,,,,,,,,477.1994743000005,477.2558480000007,477.7121511000005,477.71220690000064,478.2115934000003,478.68895470000007,478.49592160000066,478.49595620000036,479.81374830000004,479.81374830000004,480.31396660000064,right,1,0.48839889999999286,None,,016,001,2023-11-12_14h59.09.711,untitled,2023.2.2,60.11230180228108,2023-11-12 14h59.23.437665 +0800,
9,condition_2/leftstar.PNG,left,,,,,,,,,,,,,1,16,41,19,480.3672400000005,,,,,,,,,,,,,,,,,,,,,,,,,,,,,,,,,,,,,,,,,,,,,,,,,,,,,,,,,,,,,,,,,,,,,,,,,,,,,,,,,,,,,,,,,,,,,,,,,,,,,,,,,480.3150572000004,480.3672400000005,480.8288868000009,480.8289126000009,481.3283656000003,481.74296550000054,481.6133071000004,481.61333580000064,482.93037150000055,482.93037150000055,483.3638496000003,left,1,0.4224853000005169,None,,016,001,2023-11-12_14h59.09.711,untitled,2023.2.2,60.11230180228108,2023-11-12 14h59.23.437665 +0800,
1,condition_2/leftstar.PNG,space,,,,,,,,,,,,,1,17,42,22,483.4226180000005,,,,,,,,,,,,,,,,,,,,,,,,,,,,,,,,,,,,,,,,,,,,,,,,,,,,,,,,,,,,,,,,,,,,,,,,,,,,,,,,,,,,,,,,,,,,,,,,,,,,,,,,,483.3648710000007,483.4226180000005,483.87891730000047,483.87894490000053,484.3781361000001,484.7827027000003,484.6642115000004,484.66424350000034,485.97996990000047,485.97996990000047,486.4323144,space,1,0.44766530000015337,None,,016,001,2023-11-12_14h59.09.711,untitled,2023.2.2,60.11230180228108,2023-11-12 14h59.23.437665 +0800,
2,condition_2/rightstar.PNG,space,,,,,,,,,,,,,1,18,43,21,486.4912445,,,,,,,,,,,,,,,,,,,,,,,,,,,,,,,,,,,,,,,,,,,,,,,,,,,,,,,,,,,,,,,,,,,,,,,,,,,,,,,,,,,,,,,,,,,,,,,,,,,,,,,,,486.4334888000003,486.4912445,486.9456357000008,486.9456620000001,487.4449480000003,487.87099150000086,487.7291987000008,487.7292307000007,489.04704720000063,489.04704720000063,489.38046040000063,space,1,0.31622839999999997,None,,016,001,2023-11-12_14h59.09.711,untitled,2023.2.2,60.11230180228108,2023-11-12 14h59.23.437665 +0800,
8,condition_2/leftstar.PNG,left,,,,,,,,,,,,,1,19,44,18,489.4317310000006,,,,,,,,,,,,,,,,,,,,,,,,,,,,,,,,,,,,,,,,,,,,,,,,,,,,,,,,,,,,,,,,,,,,,,,,,,,,,,,,,,,,,,,,,,,,,,,,,,,,,,,,,489.3815028000008,489.4317310000006,489.8954046000008,489.8954297,490.3950016000008,490.82985800000006,490.6795024000003,490.6795381000002,491.9969206000005,491.9969206000005,492.36370110000007,left,1,0.36105140000017855,None,,016,001,2023-11-12_14h59.09.711,untitled,2023.2.2,60.11230180228108,2023-11-12 14h59.23.437665 +0800,
9,condition_2/leftstar.PNG,left,,,,,,,,,,,,,1,20,45,3,492.4179264000004,,,,,,,,,,,,,,,,,,,,,,,,,,,,,,,,,,,,,,,,,,,,,,,,,,,,,,,,,,,,,,,,,,,,,,,,,,,,,,,,,,,,,,,,,,,,,,,,,,,,,,,,,492.36464950000027,492.4179264000004,492.87918230000014,492.87921070000084,493.37809600000037,493.78268540000045,493.6623939000001,493.66242050000074,494.9802180000006,494.9802180000006,495.46384820000003,left,1,0.4760448999995788,None,,016,001,2023-11-12_14h59.09.711,untitled,2023.2.2,60.11230180228108,2023-11-12 14h59.23.437665 +0800,
8,condition_2/leftstar.PNG,left,,,,,,,,,,,,,1,21,46,2,495.52117290000024,,,,,,,,,,,,,,,,,,,,,,,,,,,,,,,,,,,,,,,,,,,,,,,,,,,,,,,,,,,,,,,,,,,,,,,,,,,,,,,,,,,,,,,,,,,,,,,,,,,,,,,,,495.4649420000005,495.52117290000024,495.9787567000003,495.97878160000073,496.4785081,496.89067670000077,496.76237330000004,496.7624028,498.0806695000001,498.0806695000001,498.49740230000043,left,1,0.3990198999999848,None,,016,001,2023-11-12_14h59.09.711,untitled,2023.2.2,60.11230180228108,2023-11-12 14h59.23.437665 +0800,
9,condition_2/rightstar.PNG,right,,,,,,,,,,,,,1,22,47,7,498.5501180000001,,,,,,,,,,,,,,,,,,,,,,,,,,,,,,,,,,,,,,,,,,,,,,,,,,,,,,,,,,,,,,,,,,,,,,,,,,,,,,,,,,,,,,,,,,,,,,,,,,,,,,,,,498.4986579000006,498.5501180000001,499.01232360000085,499.01234920000024,499.5114792000004,499.92637640000066,499.7961324000007,499.7961623000001,501.1134068000001,501.1134068000001,501.44726940000055,right,1,0.31727690000025177,None,,016,001,2023-11-12_14h59.09.711,untitled,2023.2.2,60.11230180228108,2023-11-12 14h59.23.437665 +0800,
2,condition_2/rightstar.PNG,space,,,,,,,,,,,,,1,23,48,13,501.50354960000004,,,,,,,,,,,,,,,,,,,,,,,,,,,,,,,,,,,,,,,,,,,,,,,,,,,,,,,,,,,,,,,,,,,,,,,,,,,,,,,,,,,,,,,,,,,,,,,,,,,,,,,,,501.4483220000002,501.50354960000004,501.9621207,501.9621837000004,502.46166970000013,502.8708568000002,502.74635240000043,502.74638290000075,504.06374980000055,504.06374980000055,504.62979090000044,space,1,0.5497795999999653,None,,016,001,2023-11-12_14h59.09.711,untitled,2023.2.2,60.11230180228108,2023-11-12 14h59.23.437665 +0800,
9,condition_2/rightstar.PNG,right,,,,,,,,,,,,,1,24,49,15,504.6852658000007,,,,,,,,,,,,,,,,,,,,,,,,,,,,,,,,,,,,,,,,,,,,,,,,,,,,,,,,,,,,,,,,,,,,,,,,,,,,,,,,,,,,,,,,,,,,,,,,,,,,,,,,,504.63055520000034,504.6852658000007,505.14570840000033,505.1457454000001,505.64494600000035,506.04745750000075,505.9290768000001,505.9291092000003,507.2470293000006,507.2470293000006,507.6636027000004,right,1,0.4006507000003694,None,,016,001,2023-11-12_14h59.09.711,untitled,2023.2.2,60.11230180228108,2023-11-12 14h59.23.437665 +0800,
